Accel_X	Accel_Y	Accel_Z	Cont_TempV	Cont_TempDegC	Cont_TempDegF	IF_Temp_ObjDegC	IF_Temp_ObjDegF	IF_Temp_LocDegC	IF_Temp_LocDegF	SoundV	SoundRaw	SoundScl	RPM_Hz	RPM	Current	Error0	0	0	0	0	0	0	0	0	0	0	0	0	1	4	0	00.07	-0.136	0.963	0.258	-24.462	-12.268	16.844	62.319	20.844	69.519	0.063	152	6.418	1	4	-0.229	00.078	-0.132	0.963	0.667	16.549	61.868	16.844	62.319	20.844	69.519	0.079	178	7.824	1	4	0.492	00.078	-0.132	0.963	0.667	16.549	61.868	16.844	62.319	20.844	69.519	0.079	178	7.824	1	4	0.492	00.07	-0.136	0.967	0.241	-26.264	-15.433	16.844	62.319	20.844	69.519	0.067	146	6.286	1	4	-0.141	00.074	-0.132	0.959	0.223	-27.846	-18.44	16.844	62.319	20.844	69.519	0.063	145	6.593	1	4	-0.211	00.066	-0.132	0.959	0.227	-27.495	-17.49	16.844	62.319	20.844	69.519	0.063	142	6.374	1	4	-0.229	00.07	-0.132	0.959	0.254	-24.813	-12.822	16.844	62.319	20.844	69.519	0.068	150	6.681	1	4	-0.176	00.074	-0.14	0.956	0.665	16.374	61.473	16.844	62.319	20.844	69.519	0.081	184	7.956	1	4	0.492	00.074	-0.136	0.959	0.298	-20.374	-5.068	16.844	62.319	20.844	69.519	0.067	149	6.725	1	4	-0.141	00.07	-0.136	0.959	0.667	16.637	61.947	16.844	62.319	20.844	69.519	0.08	182	7.956	1	4	0.492	00.07	-0.14	0.959	0.668	16.725	62.105	16.844	62.319	20.844	69.519	0.082	184	8	1	4	0.58	00.074	-0.132	0.959	0.668	16.769	62.026	16.844	62.319	20.844	69.519	0.083	188	8.132	1	4	0.475	00.078	-0.136	0.959	0.666	16.637	62.105	16.844	62.319	20.844	69.519	0.081	183	7.956	1	4	0.563	00.074	-0.136	0.963	0.45	-5.297	22.308	16.844	62.319	20.844	69.519	0.071	163	7.077	1	4	0.07	00.07	-0.136	0.959	0.444	-5.692	21.912	16.844	62.319	20.844	69.519	0.071	162	7.165	1	4	0.193	00.074	-0.136	0.963	0.668	16.725	61.947	16.844	62.319	20.844	69.519	0.079	183	7.912	1	4	0.492	00.066	-0.136	0.967	0.668	16.681	62.026	16.844	62.319	20.844	69.519	0.082	182	8.044	1	4	0.527	00.066	-0.136	-0.039	0.667	16.681	62.185	16.844	62.319	20.844	69.519	0.079	180	8	1	4	0.457	00.07	-0.136	0.959	0.668	16.725	62.264	16.844	62.319	20.844	69.519	0.079	181	8.044	1	4	0.545	00.074	-0.136	0.963	0.668	16.725	62.185	16.844	62.319	20.844	69.519	0.078	178	7.956	1	4	0.527	00.07	-0.136	0.952	0.285	-21.604	-6.651	16.844	62.319	20.844	69.519	0.068	150	6.769	1	4	-0.141	00.074	-0.132	0.959	0.666	16.549	61.631	16.844	62.319	20.844	69.519	0.079	180	8	1	4	0.51	00.074	-0.136	0.963	0.668	16.681	62.185	16.844	62.319	20.844	69.519	0.08	185	8.088	1	4	0.457	00.078	-0.14	0.959	0.669	16.769	62.105	16.844	62.319	20.844	69.519	0.08	185	8.088	1	4	0.457	00.078	-0.14	0.959	0.669	16.769	62.105	16.844	62.319	20.844	69.519	0.082	183	8.22	1	4	0.51	00.074	-0.136	0.956	0.665	16.462	61.631	16.844	62.319	20.844	69.519	0.084	187	8.308	1	4	0.51	00.07	-0.132	0.956	0.493	-0.813	30.299	16.844	62.319	20.844	69.519	0.074	168	7.473	1	4	0.299	00.07	-0.136	0.959	0.667	16.725	61.868	16.844	62.319	20.844	69.519	0.078	180	7.956	1	4	0.545	00.07	-0.136	-0.035	0.668	16.681	61.947	16.844	62.319	20.844	69.519	0.08	185	8.176	1	4	0.457	00.074	-0.136	0.959	0.667	16.637	62.105	16.844	62.319	20.844	69.519	0.08	183	8.088	1	4	0.545	00.074	-0.132	0.956	0.665	16.505	61.631	16.844	62.319	20.844	69.519	0.081	183	8.044	1	4	0.492	00.07	-0.136	0.959	0.382	-11.934	10.44	16.844	62.319	20.844	69.519	0.072	159	7.385	1	4	0	00.074	-0.14	0.963	0.667	16.593	61.789	16.844	62.319	20.844	69.519	0.082	187	8.308	1	4	0.545	00.074	-0.136	0.959	0.668	16.769	61.868	16.844	62.319	20.844	69.519	0.08	180	7.956	1	4	0.51	00.07	-0.136	0.959	0.668	16.725	62.026	16.844	62.319	20.844	69.519	0.08	179	7.736	1	4	0.492	00.07	-0.136	0.959	0.666	16.681	62.026	16.844	62.319	20.844	69.519	0.082	185	8.088	1	4	0.545	00.074	-0.132	0.959	0.665	16.462	61.71	16.844	62.319	20.844	69.519	0.08	184	8.132	1	4	0.475	00.07	-0.136	0.967	0.386	-11.275	11.785	16.844	62.319	20.844	69.519	0.07	160	7.209	1	4	0.07	00.074	-0.14	0.959	0.389	-11.319	11.468	16.844	62.319	20.844	69.519	0.07	160	7.033	1	4	0.053	00.074	-0.136	0.959	0.384	-11.67	11.31	16.844	62.319	20.844	69.519	0.073	163	7.297	1	4	0.088	00.07	-0.136	0.963	0.38	-12.198	10.202	16.844	62.319	20.844	69.519	0.072	162	7.165	1	4	0.141	00.07	-0.136	0.956	0.383	-11.846	10.598	16.844	62.319	20.844	69.519	0.073	162	7.341	1	4	-0.035	00.07	-0.132	0.959	0.667	16.593	61.789	16.844	62.319	20.844	69.519	0.081	186	8.176	1	4	0.475	00.074	-0.132	0.959	0.297	-20.374	-4.673	16.844	62.319	20.844	69.519	0.066	151	6.637	1	4	-0.035	00.074	-0.136	0.956	0.663	16.286	61.235	16.844	62.319	20.844	69.519	0.081	184	8.176	1	4	0.475	00.07	-0.136	0.959	0.665	16.505	61.71	16.844	62.319	20.844	69.519	0.081	179	8.132	1	4	0.475	00.074	-0.136	0.952	0.667	16.549	61.71	16.844	62.319	20.844	69.519	0.08	174	7.868	1	4	0.527	00.074	-0.132	0.959	0.667	16.681	61.947	16.844	62.319	20.844	69.519	0.08	180	7.956	1	4	0.545	00.07	-0.14	0.959	0.315	-18.615	-1.587	16.844	62.319	20.844	69.519	0.066	149	6.813	1	4	-0.088	00.074	-0.136	0.959	0.667	16.593	61.789	16.844	62.319	20.844	69.519	0.08	186	8.132	1	4	0.492	00.074	-0.136	0.959	0.317	-18.484	-1.587	16.844	62.319	20.844	69.519	0.068	153	6.901	1	4	0	00.07	-0.14	0.971	0.665	16.462	61.868	16.906	62.431	20.844	69.519	0.08	185	8.22	1	4	0.545	00.07	-0.136	0.959	0.317	-18.352	-1.429	16.906	62.431	20.844	69.519	0.069	151	6.681	1	4	-0.088	00.07	-0.136	0.959	0.667	16.637	61.868	16.906	62.431	20.844	69.519	0.08	180	7.868	1	4	0.545	00.07	-0.136	0.959	0.667	16.505	61.789	16.906	62.431	20.844	69.519	0.079	182	8	1	4	0.492	00.074	-0.136	0.963	0.665	16.374	61.552	16.906	62.431	20.844	69.519	0.081	183	7.956	1	4	0.545	00.074	-0.136	0.959	0.335	-16.725	1.657	16.906	62.431	20.844	69.519	0.067	152	6.681	1	4	-0.123	00.07	-0.136	0.963	0.329	-17.077	1.42	16.906	62.431	20.844	69.519	0.068	152	6.901	1	4	0	00.07	-0.136	0.959	0.33	-17.121	1.182	16.906	62.431	20.844	69.519	0.067	153	6.681	1	4	0.018	00.07	-0.14	0.963	0.323	-17.78	-0.004	16.906	62.431	20.844	69.519	0.068	156	6.857	1	4	-0.053	00.07	-0.14	0.959	0.667	16.637	62.185	16.906	62.431	20.844	69.519	0.08	182	8	1	4	0.563	00.07	-0.136	0.963	0.303	-19.758	-3.486	16.906	62.431	20.844	69.519	0.068	153	6.681	1	4	-0.123	00.074	-0.136	0.967	0.308	-19.275	-2.695	16.906	62.431	20.844	69.519	0.069	161	6.813	1	4	-0.018	00.074	-0.136	0.959	0.302	-19.758	-3.565	16.906	62.431	20.844	69.519	0.066	154	6.637	1	4	-0.158	00.07	-0.132	0.952	0.668	16.593	61.868	16.906	62.431	20.844	69.519	0.081	183	8.044	1	4	0.457	00.074	-0.136	0.967	0.668	16.769	62.026	16.906	62.431	20.844	69.519	0.082	183	8.044	1	4	0.58	00.074	-0.136	0.967	0.668	16.769	62.026	16.906	62.431	20.844	69.519	0.082	183	8.044	1	4	0.58	00.07	-0.136	0.959	0.667	16.681	62.026	16.906	62.431	20.844	69.519	0.08	181	8	1	4	0.58	00.07	-0.136	0.959	0.666	16.637	62.026	16.906	62.431	20.844	69.519	0.078	183	8	1	4	0.492	00.07	-0.136	0.959	0.667	16.681	62.026	16.906	62.431	20.844	69.519	0.082	184	8.044	1	4	0.475	00.07	-0.14	0.959	0.666	16.593	62.026	16.906	62.431	20.844	69.519	0.08	185	8.088	1	4	0.527	00.07	-0.14	0.963	0.666	16.637	62.026	16.906	62.431	20.844	69.519	0.08	183	8.088	1	4	0.51	00.07	-0.136	0.959	0.396	-10.484	13.051	16.906	62.431	20.844	69.519	0.071	160	7.121	1	4	-0.035	00.074	-0.132	-0.039	0.665	16.462	61.552	16.906	62.431	20.844	69.519	0.081	186	8.308	1	4	0.492	00.07	-0.14	0.959	0.401	-10.176	13.604	16.906	62.431	20.844	69.519	0.075	177	7.56	1	4	0.053	00.07	-0.136	0.959	0.402	-10.132	13.446	16.906	62.431	20.844	69.519	0.073	162	7.209	0	0	0.07	00.07	-0.136	0.959	0.668	16.725	62.026	16.906	62.431	20.844	69.519	0.083	189	8.176	0	0	0.492	00.07	-0.136	0.959	0.668	16.725	62.026	16.906	62.431	20.844	69.519	0.083	189	8.176	0	0	0.492	00.074	-0.136	0.959	0.32	-18.176	-0.084	16.906	62.431	20.844	69.519	0.07	152	6.857	0	0	-0.105	00.07	-0.136	0.963	0.665	16.462	61.631	16.906	62.431	20.844	69.519	0.083	184	8.352	0	0	0.492	00.07	-0.136	0.963	0.665	16.462	61.631	16.906	62.431	20.844	69.519	0.083	184	8.352	0	0	0.492	00.07	-0.136	0.959	0.665	16.549	61.789	16.906	62.431	20.844	69.519	0.088	204	8.923	0	0	0.527	00.07	-0.132	0.956	0.667	16.637	61.868	16.906	62.431	20.844	69.519	0.08	186	7.956	0	0	0.492	00.07	-0.132	0.956	0.667	16.637	61.868	16.906	62.431	20.844	69.519	0.08	186	7.956	0	0	0.492	00.07	-0.144	0.963	0.222	-27.89	-18.202	16.906	62.431	20.844	69.519	0.073	171	7.341	0	0	-0.211	00.074	-0.136	0.959	0.667	16.681	61.789	16.906	62.431	20.844	69.519	0.087	198	9.011	0	0	0.492	00.074	-0.136	-0.039	0.667	16.681	61.868	16.906	62.431	20.844	69.519	0.087	197	8.791	0	0	0.492	00.07	-0.136	0.963	0.665	16.462	61.552	16.906	62.431	20.844	69.519	0.09	205	9.011	0	0	0.475	00.078	-0.136	0.959	0.666	16.593	61.789	16.906	62.431	20.844	69.519	0.086	193	8.571	0	0	0.492	00.074	-0.136	0.963	0.429	-7.231	18.51	16.906	62.431	20.844	69.519	0.073	163	7.253	0	0	0.123	00.07	-0.136	0.959	0.666	16.549	61.789	16.906	62.431	20.844	69.519	0.079	181	8.044	0	0	0.51	00.07	-0.136	0.959	0.668	16.681	61.947	16.906	62.431	20.844	69.519	0.087	196	8.484	0	0	0.51	00.07	-0.14	0.956	0.665	16.593	61.868	16.906	62.431	20.844	69.519	0.082	190	8.308	0	0	0.527	00.07	-0.128	0.967	0.666	16.549	61.868	16.906	62.431	20.844	69.519	0.084	179	8.22	0	0	0.51	00.074	-0.136	0.963	0.668	16.681	61.868	16.906	62.431	20.844	69.519	0.086	195	8.571	0	0	0.475	00.07	-0.132	0.959	0.288	-21.385	-6.334	16.906	62.431	20.844	69.519	0.068	153	6.857	0	0	-0.105	00.07	-0.136	0.959	0.667	16.593	61.947	16.906	62.431	20.875	69.575	0.086	192	8.484	0	0	0.475	00.07	-0.136	0.963	0.667	16.593	61.789	16.906	62.431	20.875	69.575	0.084	194	8.484	0	0	0.475	00.074	-0.132	0.959	0.664	16.418	61.552	16.906	62.431	20.875	69.575	0.082	188	8.352	0	0	0.422	00.074	-0.136	0.959	0.666	16.549	61.789	16.906	62.431	20.875	69.575	0.084	190	8.484	0	0	0.527	00.07	-0.136	0.959	0.665	16.33	61.552	16.906	62.431	20.875	69.575	0.082	187	8.308	0	0	0.492	00.07	-0.136	0.963	0.372	-12.769	9.015	16.688	62.037	20.875	69.575	0.07	162	6.945	0	0	0.018	00.07	-0.136	0.959	0.667	16.681	62.026	16.688	62.037	20.875	69.575	0.084	188	8.484	0	0	0.51	00.074	-0.136	0.963	0.666	16.593	61.868	16.688	62.037	20.875	69.575	0.083	187	8.396	0	0	0.51	00.07	-0.136	0.963	0.666	16.637	61.868	16.688	62.037	20.875	69.575	0.082	187	8.132	0	0	0.492	00.074	-0.136	0.959	0.668	16.505	61.789	16.688	62.037	20.875	69.575	0.083	194	8.44	0	0	0.475	00.066	-0.132	0.963	0.667	16.681	61.947	16.688	62.037	20.875	69.575	0.083	190	8.396	0	0	0.527	00.074	-0.136	0.959	0.299	-20.33	-4.752	16.688	62.037	20.875	69.575	0.071	156	7.077	0	0	-0.141	00.074	-0.148	0.956	0.298	-20.374	-4.673	16.688	62.037	20.875	69.575	0.068	151	6.637	0	0	-0.053	00.07	-0.136	0.959	0.299	-20.286	-4.593	16.688	62.037	20.875	69.575	0.068	155	6.681	0	0	-0.176	00.066	-0.14	0.956	0.301	-19.89	-3.802	16.688	62.037	20.875	69.575	0.07	152	6.813	0	0	-0.141	00.066	-0.132	0.959	0.305	-19.846	-3.723	16.688	62.037	20.875	69.575	0.068	156	6.637	0	0	-0.105	00.078	-0.132	0.959	0.466	-3.67	25.156	16.688	62.037	20.875	69.575	0.073	169	7.165	0	0	0.158	00.074	-0.128	0.956	0.668	16.725	62.026	16.688	62.037	20.875	69.575	0.081	188	8.22	0	0	0.51	00.07	-0.132	0.963	0.663	16.374	61.552	16.688	62.037	20.875	69.575	0.085	186	8.264	0	0	0.475	00.07	-0.132	0.963	0.665	16.462	61.473	16.688	62.037	20.875	69.575	0.08	188	7.912	0	0	0.492	00.07	-0.14	0.959	0.665	16.462	61.552	16.688	62.037	20.875	69.575	0.079	183	7.956	0	0	0.51	00.066	-0.132	-0.035	0.665	16.374	61.552	16.688	62.037	20.875	69.575	0.081	183	8.22	0	0	0.492	00.07	-0.136	0.959	0.505	0.286	32.435	16.688	62.037	20.875	69.575	0.075	172	7.209	0	0	0.193	00.066	-0.132	0.963	0.665	16.418	61.631	16.688	62.037	20.875	69.575	0.08	184	8.132	0	0	0.51	00.074	-0.136	0.963	0.48	-1.956	28.479	16.688	62.037	20.875	69.575	0.075	172	7.516	0	0	0.123	00.07	-0.132	0.963	0.475	-2.703	27.134	16.688	62.037	20.875	69.575	0.074	164	7.429	0	0	0.193	00.074	-0.128	0.952	0.48	-2.264	27.846	16.688	62.037	20.875	69.575	0.078	173	7.648	0	0	0.105	00.07	-0.136	0.959	0.664	16.374	61.473	16.688	62.037	20.875	69.575	0.082	189	8.22	0	0	0.51	00.07	-0.136	0.959	0.664	16.374	61.473	16.688	62.037	20.875	69.575	0.082	189	8.22	0	0	0.51	00.074	-0.136	0.963	0.665	16.505	61.631	16.688	62.037	20.875	69.575	0.083	191	8.352	0	0	0.492	00.074	-0.136	0.963	0.665	16.505	61.631	16.688	62.037	20.875	69.575	0.083	191	8.352	0	0	0.492	00.074	-0.136	0.959	0.665	16.418	61.631	16.688	62.037	20.875	69.575	0.079	177	7.912	0	0	0.492	00.074	-0.136	0.959	0.668	16.769	62.105	16.688	62.037	20.875	69.575	0.082	184	8.132	0	0	0.545	00.07	-0.136	0.963	0.291	-20.857	-4.91	16.688	62.037	20.875	69.575	0.069	165	6.901	0	0	-0.193	00.066	-0.132	0.963	0.301	-19.89	-4.04	16.688	62.037	20.875	69.575	0.07	158	6.813	0	0	-0.035	00.074	-0.136	0.956	0.667	16.593	61.868	16.688	62.037	20.875	69.575	0.081	180	8	0	0	0.457	00.07	-0.132	0.963	0.666	16.637	61.947	16.688	62.037	20.875	69.575	0.085	194	8.352	0	0	0.492	00.487	-0.386	1.026	0.666	16.593	61.789	16.688	62.037	20.875	69.575	0.111	254	11.209	0	0	0.51	0-0.035	-0.963	0.975	0.668	16.637	61.789	16.688	62.037	20.875	69.575	0.1	232	10.154	1	4	0.475	00.058	-0.14	0.959	0.666	16.593	61.947	16.688	62.037	20.875	69.575	0.087	200	8.791	1	4	0.475	00.074	-0.128	0.952	0.326	-17.56	0.154	16.688	62.037	20.875	69.575	0.066	151	6.593	1	4	-0.053	00.074	-0.136	0.959	0.664	16.462	61.473	16.688	62.037	20.875	69.575	0.082	184	8.176	1	4	0.492	00.07	-0.136	0.959	0.666	16.637	61.868	16.688	62.037	20.875	69.575	0.08	179	8.044	1	4	0.475	00.07	-0.136	0.967	0.665	16.374	61.473	16.688	62.037	20.875	69.575	0.084	190	8.484	1	4	0.475	00.031	-0.152	0.959	0.666	16.637	61.947	16.688	62.037	20.875	69.575	0.086	198	8.659	1	4	0.492	00.066	-0.136	0.963	0.152	-34.747	-30.624	16.688	62.037	20.875	69.575	0.061	147	6.198	1	4	-0.352	00.074	-0.136	0.952	0.155	-34.484	-29.912	16.688	62.037	20.875	69.575	0.062	139	6.242	1	4	-0.334	00.07	-0.136	0.959	0.164	-33.692	-28.567	16.688	62.037	20.875	69.575	0.06	136	6.154	1	4	-0.334	00.07	-0.136	0.959	0.164	-33.692	-28.567	16.688	62.037	20.875	69.575	0.06	136	6.154	1	4	-0.334	00.074	-0.132	0.959	0.171	-33.121	-27.855	16.688	62.037	20.875	69.575	0.063	142	6.374	1	4	-0.334	00.086	-0.128	0.959	0.667	16.637	62.026	16.688	62.037	20.875	69.575	0.086	189	8.527	1	4	0.422	00.086	-0.128	0.959	0.667	16.637	62.026	16.688	62.037	20.875	69.575	0.086	189	8.527	1	4	0.422	00.074	-0.14	0.952	0.206	-29.604	-21.288	16.688	62.037	20.875	69.575	0.065	142	6.11	1	4	-0.211	00.066	-0.136	0.959	0.664	16.374	61.473	16.688	62.037	20.875	69.575	0.08	184	8.088	1	4	0.387	00.07	-0.136	0.963	0.664	16.374	61.473	16.688	62.037	20.875	69.575	0.08	185	8	1	4	0.475	00.074	-0.14	0.959	0.662	16.154	61.235	16.688	62.037	20.875	69.575	0.08	186	8.176	1	4	0.527	00.074	-0.132	0.959	0.665	16.418	61.552	16.469	61.644	20.875	69.575	0.082	184	8.044	1	4	0.527	00.074	-0.132	0.963	0.468	-3.582	25.631	16.469	61.644	20.875	69.575	0.073	162	7.297	1	4	0.141	00.074	-0.136	0.959	0.474	-2.747	26.738	16.469	61.644	20.875	69.575	0.073	165	7.429	1	4	0.176	00.074	-0.136	0.963	0.469	-3.231	26.343	16.469	61.644	20.875	69.575	0.072	165	7.209	1	4	0.176	00.074	-0.136	0.963	0.467	-3.407	26.105	16.469	61.644	20.875	69.575	0.072	161	7.253	1	4	0.264	00.07	-0.136	0.959	0.464	-3.538	25.789	16.469	61.644	20.875	69.575	0.075	170	7.604	1	4	0.176	00.066	-0.132	0.959	0.666	16.549	61.71	16.469	61.644	20.875	69.575	0.083	187	8.264	1	4	0.58	00.07	-0.136	0.959	0.668	16.725	62.105	16.469	61.644	20.875	69.575	0.08	185	8.132	1	4	0.457	00.074	-0.136	0.959	0.349	-15.275	4.189	16.469	61.644	20.875	69.575	0.071	166	7.033	1	4	-0.035	00.07	-0.14	0.959	0.35	-15.099	4.901	16.469	61.644	20.875	69.575	0.069	161	7.121	1	4	-0.035	00.07	-0.132	-0.039	0.352	-15.187	4.664	16.469	61.644	20.875	69.575	0.069	162	6.989	1	4	-0.07	00.074	-0.136	0.963	0.352	-15.011	4.901	16.469	61.644	20.875	69.575	0.067	152	6.725	1	4	0	00.066	-0.14	0.967	0.387	-11.407	11.785	16.469	61.644	20.875	69.575	0.071	165	7.297	1	4	0.018	00.07	-0.132	0.963	0.388	-11.187	11.864	16.469	61.644	20.875	69.575	0.069	158	6.813	1	4	0.088	00.07	-0.136	0.959	0.667	16.725	62.105	16.469	61.644	20.875	69.575	0.08	181	8.044	1	4	0.492	00.07	-0.136	0.956	0.667	16.681	61.868	16.469	61.644	20.875	69.575	0.08	190	8.176	1	4	0.492	00.074	-0.136	0.959	0.667	16.681	62.185	16.469	61.644	20.875	69.575	0.085	196	8.396	1	4	0.492	00.074	-0.136	0.959	0.668	16.681	62.026	16.469	61.644	20.875	69.575	0.082	184	8.264	1	4	0.492	00.066	-0.136	0.952	0.668	16.725	62.105	16.469	61.644	20.875	69.575	0.078	180	8	1	4	0.492	00.07	-0.132	0.959	0.226	-27.495	-17.569	16.469	61.644	20.875	69.575	0.068	149	6.725	1	4	-0.316	00.07	-0.136	0.963	0.228	-27.363	-17.411	16.469	61.644	20.875	69.575	0.066	152	6.418	1	4	-0.193	00.074	-0.132	0.963	0.229	-27.495	-17.727	16.469	61.644	20.875	69.575	0.065	139	6.242	1	4	-0.246	00.07	-0.136	0.959	0.226	-27.538	-17.807	16.469	61.644	20.875	69.575	0.068	151	6.813	1	4	-0.211	00.07	-0.136	0.959	0.667	16.725	62.026	16.469	61.644	20.875	69.575	0.082	186	8.132	1	4	0.457	00.066	-0.14	0.963	0.33	-17.165	0.945	16.469	61.644	20.875	69.575	0.069	156	6.945	1	4	0.053	00.07	-0.136	0.959	0.665	16.549	61.631	16.469	61.644	20.875	69.575	0.084	187	8.176	1	4	0.44	00.066	-0.14	0.959	0.667	16.681	61.947	16.469	61.644	20.875	69.575	0.081	187	8.132	1	4	0.475	00.07	-0.14	0.959	0.666	16.593	62.185	16.469	61.644	20.875	69.575	0.082	185	8.264	1	4	0.51	00.07	-0.136	0.959	0.667	16.637	62.105	16.469	61.644	20.875	69.575	0.082	189	8.22	1	4	0.545	00.074	-0.128	0.959	0.667	16.681	61.868	16.469	61.644	20.875	69.575	0.08	190	8.308	1	4	0.475	00.074	-0.132	0.959	0.179	-32.11	-25.877	16.469	61.644	20.875	69.575	0.062	143	6.242	1	4	-0.334	00.07	-0.136	0.959	0.667	16.637	62.026	16.469	61.644	20.875	69.575	0.083	188	8.308	1	4	0.527	00.07	-0.136	0.959	0.666	16.505	61.868	16.469	61.644	20.875	69.575	0.083	190	8.264	1	4	0.457	00.074	-0.128	0.959	0.667	16.549	61.789	16.469	61.644	20.875	69.575	0.081	187	8.176	1	4	0.44	00.07	-0.132	0.956	0.668	16.725	61.947	16.469	61.644	20.875	69.575	0.082	184	8.088	1	4	0.51	00.074	-0.136	0.959	0.172	-32.549	-26.352	16.469	61.644	20.875	69.575	0.062	137	5.978	1	4	-0.387	00.07	-0.136	0.967	0.171	-33.033	-27.776	16.469	61.644	20.875	69.575	0.061	139	6.242	1	4	-0.281	00.074	-0.14	0.959	0.665	16.374	61.552	16.469	61.644	20.875	69.575	0.083	189	8.396	1	4	0.475	00.07	-0.136	0.959	0.663	16.198	61.077	16.469	61.644	20.875	69.575	0.083	189	8.308	1	4	0.492	00.074	-0.132	0.959	0.663	16.374	61.473	16.469	61.644	20.875	69.575	0.082	190	8.22	1	4	0.492	00.074	-0.132	0.959	0.663	16.374	61.473	16.469	61.644	20.875	69.575	0.082	190	8.22	1	4	0.492	00.07	-0.136	1.954	0.662	16.154	61.077	16.469	61.644	20.875	69.575	0.08	185	8.132	1	4	0.527	00.07	-0.136	1.954	0.662	16.154	61.077	16.469	61.644	20.875	69.575	0.08	185	8.132	1	4	0.527	00.07	-0.136	0.959	0.665	16.374	61.789	16.469	61.644	20.875	69.575	0.08	184	8.132	1	4	0.475	00.07	-0.136	0.959	0.665	16.505	61.473	16.469	61.644	20.875	69.575	0.081	186	8.088	1	4	0.51	00.074	-0.14	0.959	0.665	16.418	61.552	16.469	61.644	20.906	69.631	0.08	179	8	1	4	0.492	00.074	-0.132	0.963	0.667	16.549	61.789	16.469	61.644	20.906	69.631	0.081	185	8	1	4	0.457	00.07	-0.14	0.959	0.428	-7.187	18.985	16.469	61.644	20.906	69.631	0.072	165	6.989	1	4	0.123	00.07	-0.136	0.959	0.422	-7.89	17.719	16.469	61.644	20.906	69.631	0.076	168	7.429	1	4	0.07	00.074	-0.136	0.959	0.666	16.505	61.868	16.469	61.644	20.906	69.631	0.081	185	8.088	1	4	0.475	00.07	-0.136	0.959	0.667	16.637	62.105	16.469	61.644	20.906	69.631	0.082	185	8.132	1	4	0.457	00.078	-0.14	0.959	0.668	16.681	61.947	16.719	62.094	20.906	69.631	0.081	182	8	1	4	0.51	00.078	-0.14	0.959	0.668	16.681	61.947	16.719	62.094	20.906	69.631	0.081	182	8	1	4	0.51	00.07	-0.136	0.959	0.666	16.549	61.947	16.719	62.094	20.906	69.631	0.084	194	8.396	1	4	0.563	00.07	-0.136	0.963	0.317	-18.396	-0.954	16.719	62.094	20.906	69.631	0.068	149	6.725	1	4	-0.088	00.074	-0.14	0.959	0.668	16.725	62.105	16.719	62.094	20.906	69.631	0.08	179	7.956	1	4	0.457	00.07	-0.136	0.959	0.664	16.374	61.314	16.719	62.094	20.906	69.631	0.08	182	7.956	1	4	0.51	00.074	-0.132	0.963	0.668	16.725	62.185	16.719	62.094	20.906	69.631	0.08	181	7.956	1	4	0.457	00.074	-0.132	0.963	0.668	16.725	62.185	16.719	62.094	20.906	69.631	0.08	181	7.956	0	0	0.457	00.07	-0.136	0.959	0.15	-35.187	-31.574	16.719	62.094	20.906	69.631	0.065	148	6.33	0	0	-0.404	00.062	-0.14	0.963	0.152	-34.835	-30.941	16.719	62.094	20.906	69.631	0.062	144	6.286	0	0	-0.404	00.074	-0.136	0.959	0.151	-34.791	-30.624	16.719	62.094	20.906	69.631	0.06	139	5.978	0	0	-0.404	00.074	-0.136	0.959	0.149	-35.187	-31.336	16.719	62.094	20.906	69.631	0.065	147	6.286	0	0	-0.352	00.074	-0.132	0.963	0.15	-35.143	-31.495	16.719	62.094	20.906	69.631	0.061	139	6.198	0	0	-0.387	00.07	-0.136	0.963	0.666	16.637	61.868	16.719	62.094	20.906	69.631	0.082	189	8.308	0	0	0.527	00.07	-0.136	0.963	0.457	-4.505	23.969	16.719	62.094	20.906	69.631	0.075	170	7.297	0	0	0.105	00.07	-0.136	0.959	0.665	16.505	61.631	16.719	62.094	20.906	69.631	0.078	182	7.78	0	0	0.51	00.07	-0.136	0.963	0.665	16.462	61.71	16.719	62.094	20.906	69.631	0.081	192	8.22	0	0	0.545	00.074	-0.136	0.959	0.667	16.549	61.71	16.719	62.094	20.906	69.631	0.081	185	7.868	0	0	0.527	00.074	-0.132	0.959	0.669	16.725	62.105	16.719	62.094	20.906	69.631	0.083	190	8.264	0	0	0.492	00.07	-0.132	0.963	0.668	16.725	62.026	16.719	62.094	20.906	69.631	0.079	182	8.176	0	0	0.457	00.078	-0.132	0.963	0.471	-3.055	26.501	16.719	62.094	20.906	69.631	0.074	165	7.165	0	0	0.105	00.074	-0.136	0.959	0.471	-3.187	26.659	16.719	62.094	20.906	69.631	0.074	167	7.297	0	0	0.158	00.074	-0.136	0.959	0.474	-2.791	26.818	16.719	62.094	20.906	69.631	0.075	171	7.429	0	0	0.211	00.066	-0.132	0.956	0.471	-2.923	27.213	16.719	62.094	20.906	69.631	0.073	168	7.209	0	0	0.229	00.074	-0.136	0.959	0.669	16.681	61.947	16.719	62.094	20.906	69.631	0.081	183	8.088	0	0	0.51	00.074	-0.132	0.963	0.667	16.681	62.105	16.719	62.094	20.906	69.631	0.08	183	7.912	0	0	0.475	00.074	-0.136	0.967	0.29	-20.945	-5.543	16.719	62.094	20.906	69.631	0.071	161	6.989	0	0	0	00.07	-0.132	0.959	0.665	16.418	61.71	16.719	62.094	20.906	69.631	0.084	187	8.396	0	0	0.492	00.074	-0.128	0.963	0.665	16.462	61.552	16.719	62.094	20.906	69.631	0.081	185	8.088	0	0	0.492	00.07	-0.136	0.959	0.666	16.593	61.789	16.719	62.094	20.906	69.631	0.081	187	8.132	0	0	0.527	00.078	-0.124	0.959	0.667	16.637	61.947	16.719	62.094	20.906	69.631	0.08	182	8.088	0	0	0.51	00.07	-0.136	0.959	0.414	-8.989	15.424	16.719	62.094	20.906	69.631	0.072	167	7.209	0	0	0.035	00.074	-0.136	0.967	0.667	16.681	61.868	16.719	62.094	20.906	69.631	0.08	182	8	0	0	0.44	00.074	-0.136	0.959	0.415	-8.901	15.503	16.719	62.094	20.906	69.631	0.07	158	6.901	0	0	0.035	00.07	-0.136	0.956	0.412	-8.901	15.899	16.719	62.094	20.906	69.631	0.073	162	7.297	0	0	0.07	00.082	-0.132	0.956	0.418	-8.33	17.086	16.719	62.094	20.906	69.631	0.072	167	7.209	0	0	0.018	00.07	-0.136	0.959	0.417	-8.549	16.215	16.719	62.094	20.906	69.631	0.074	171	7.429	0	0	0.141	00.074	-0.136	0.959	0.43	-7.231	19.222	16.719	62.094	20.906	69.631	0.073	164	7.165	0	0	0.193	00.074	-0.14	0.963	0.667	16.549	61.789	16.719	62.094	20.906	69.631	0.083	194	8.352	0	0	0.475	00.074	-0.136	0.959	0.667	16.637	61.71	16.719	62.094	20.906	69.631	0.082	187	8.22	0	0	0.475	00.07	-0.136	0.956	0.667	16.637	61.868	16.719	62.094	20.906	69.631	0.081	186	8.308	0	0	0.492	00.074	-0.136	0.959	0.665	16.505	61.71	16.719	62.094	20.906	69.631	0.083	194	8.352	0	0	0.527	00.07	-0.136	0.959	0.666	16.549	61.947	16.719	62.094	20.906	69.631	0.08	184	8.176	0	0	0.475	00.074	-0.136	0.959	0.371	-12.857	8.936	16.719	62.094	20.906	69.631	0.07	157	7.033	0	0	0.105	00.066	-0.132	0.963	0.374	-12.901	8.857	16.719	62.094	20.906	69.631	0.073	163	7.297	0	0	0.035	00.066	-0.132	0.963	0.374	-12.901	8.857	16.719	62.094	20.906	69.631	0.073	163	7.297	0	0	0.035	00.07	-0.144	0.959	0.667	16.593	61.947	16.719	62.094	20.906	69.631	0.081	179	7.956	0	0	0.563	00.07	-0.136	0.959	0.373	-12.637	9.332	16.719	62.094	20.906	69.631	0.069	161	6.857	0	0	0.053	00.074	-0.132	0.959	0.665	16.462	61.552	16.719	62.094	20.906	69.631	0.079	188	8	0	0	0.369	00.074	-0.136	0.959	0.234	-26.527	-15.591	16.719	62.094	20.906	69.631	0.065	151	6.681	0	0	-0.211	00.07	-0.136	0.959	0.666	16.593	61.71	16.344	61.419	20.906	69.631	0.082	187	8.088	0	0	0.492	00.07	-0.136	0.956	0.233	-26.791	-16.224	16.344	61.419	20.906	69.631	0.068	148	6.505	0	0	-0.246	00.07	-0.14	0.944	0.239	-26.352	-15.67	16.344	61.419	20.906	69.631	0.066	143	6.11	0	0	-0.229	00.078	-0.136	0.956	0.236	-26.396	-15.354	16.344	61.419	20.906	69.631	0.066	144	6.549	0	0	-0.211	00.066	-0.136	0.963	0.189	-31.363	-24.611	16.344	61.419	20.906	69.631	0.062	141	6.242	0	0	-0.334	00.07	-0.136	0.963	0.192	-31.011	-24.136	16.344	61.419	20.906	69.631	0.062	140	6.154	0	0	-0.246	00.062	-0.14	0.963	0.665	16.462	61.789	16.344	61.419	20.906	69.631	0.081	187	8.044	0	0	0.475	00.066	-0.136	0.959	0.665	16.505	61.631	16.344	61.419	20.906	69.631	0.081	181	7.956	0	0	0.492	00.07	-0.136	0.963	0.666	16.549	61.71	16.344	61.419	20.906	69.631	0.081	185	8.044	0	0	0.51	00.074	-0.14	0.959	0.665	16.462	61.71	16.344	61.419	20.906	69.631	0.079	181	8.044	0	0	0.475	00.07	-0.136	0.963	0.667	16.681	62.026	16.344	61.419	20.906	69.631	0.082	183	8.088	0	0	0.422	00.074	-0.136	0.959	0.156	-34.484	-30.07	16.344	61.419	20.906	69.631	0.061	132	6.066	0	0	-0.299	00.07	-0.136	0.959	0.666	16.505	61.631	16.344	61.419	20.906	69.631	0.081	185	8.088	0	0	0.457	00.07	-0.136	0.959	0.666	16.505	61.631	16.344	61.419	20.906	69.631	0.081	185	8.088	0	0	0.457	00.074	-0.136	0.967	0.667	16.681	62.026	16.344	61.419	20.906	69.631	0.08	185	8.088	0	0	0.475	00.07	-0.136	0.959	0.666	16.593	61.789	16.344	61.419	20.906	69.631	0.08	187	8.044	0	0	0.51	00.074	-0.136	0.959	0.666	16.505	61.71	16.344	61.419	20.906	69.631	0.08	181	8	0	0	0.475	00.07	-0.14	0.963	0.41	-9.121	15.503	16.344	61.419	20.906	69.631	0.07	163	7.253	0	0	-0.018	00.074	-0.136	0.959	0.406	-9.604	14.633	16.344	61.419	20.906	69.631	0.07	158	6.989	0	0	-0.018	00.074	-0.136	0.959	0.406	-9.604	14.633	16.344	61.419	20.906	69.631	0.07	158	6.989	0	0	-0.018	00.07	-0.136	0.959	0.406	-9.473	14.791	16.344	61.419	20.906	69.631	0.07	163	7.209	0	0	0.053	00.074	-0.136	0.959	0.406	-9.429	15.266	16.344	61.419	20.906	69.631	0.069	159	7.033	0	0	0.088	00.07	-0.136	0.959	0.665	16.505	61.71	16.344	61.419	20.906	69.631	0.08	184	8.132	0	0	0.492	00.078	-0.136	0.963	0.263	-23.714	-10.686	16.344	61.419	20.906	69.631	0.066	151	6.505	0	0	-0.193	00.07	-0.136	0.963	0.262	-23.978	-10.923	16.344	61.419	20.906	69.631	0.065	143	6.593	0	0	-0.193	00.07	-0.136	0.959	0.262	-23.758	-10.765	16.344	61.419	20.906	69.631	0.065	151	6.462	0	0	-0.176	00.07	-0.148	0.959	0.262	-23.89	-10.844	16.344	61.419	20.906	69.631	0.066	148	6.374	0	0	-0.141	00.066	-0.136	0.963	0.669	16.813	62.185	16.344	61.419	20.906	69.631	0.082	183	8	0	0	0.422	00.07	-0.132	0.956	0.311	-19.099	-2.457	16.344	61.419	20.906	69.631	0.065	150	6.637	0	0	-0.018	00.07	-0.136	0.959	0.31	-19.055	-1.903	16.344	61.419	20.906	69.631	0.068	160	6.901	0	0	-0.141	00.07	-0.136	0.959	0.666	16.374	61.631	16.344	61.419	20.906	69.631	0.078	185	8.132	0	0	0.492	00.062	-0.136	0.963	0.665	16.462	61.631	16.344	61.419	20.906	69.631	0.08	185	8.176	0	0	0.457	00.07	-0.136	0.944	0.665	16.462	61.631	16.344	61.419	20.906	69.631	0.08	189	8.088	0	0	0.527	00.07	-0.14	0.959	0.666	16.593	61.868	16.344	61.419	20.906	69.631	0.078	181	7.868	0	0	0.51	00.07	-0.136	0.963	0.236	-26.571	-15.749	16.344	61.419	20.906	69.631	0.065	147	6.505	0	0	-0.246	00.066	-0.136	0.956	0.666	16.593	61.789	16.344	61.419	20.906	69.631	0.079	184	8	0	0	0.527	00.074	-0.132	0.959	0.666	16.549	61.789	16.344	61.419	20.906	69.631	0.08	188	8.176	0	0	0.475	00.07	-0.14	0.959	0.667	16.593	61.947	16.344	61.419	20.906	69.631	0.08	179	8.044	0	0	0.51	00.074	-0.136	0.959	0.666	16.549	61.789	16.344	61.419	20.906	69.631	0.077	180	7.78	0	0	0.492	00.07	-0.136	0.963	0.667	16.637	62.026	16.344	61.419	20.906	69.631	0.083	190	8.264	0	0	0.545	00.07	-0.128	0.959	0.193	-30.791	-23.345	16.344	61.419	20.906	69.631	0.064	148	6.374	0	0	-0.352	00.074	-0.136	0.963	0.194	-30.615	-23.266	16.344	61.419	20.906	69.631	0.065	146	6.33	0	0	-0.352	00.07	-0.136	0.959	0.195	-30.571	-23.187	16.344	61.419	20.906	69.631	0.067	148	6.374	0	0	-0.316	00.07	-0.132	0.956	0.191	-31.099	-24.057	16.344	61.419	20.906	69.631	0.066	149	6.505	0	0	-0.334	00.066	-0.132	0.959	0.667	16.593	61.868	16.344	61.419	20.906	69.631	0.082	185	8.176	0	0	0.51	00.07	-0.144	0.952	0.225	-27.582	-17.569	16.344	61.419	20.906	69.631	0.061	145	6.11	0	0	-0.211	00.078	-0.14	0.959	0.224	-27.714	-17.807	16.344	61.419	20.906	69.631	0.064	149	6.462	0	0	-0.211	00.07	-0.132	0.959	0.667	16.637	61.868	16.344	61.419	20.906	69.631	0.081	186	8.22	0	0	0.492	00.07	-0.132	0.956	0.665	16.462	61.552	16.344	61.419	20.906	69.631	0.08	180	7.956	0	0	0.457	00.074	-0.136	0.959	0.667	16.593	61.868	16.344	61.419	20.906	69.631	0.079	185	8.088	0	0	0.44	00.07	-0.136	0.963	0.667	16.637	61.947	16.344	61.419	20.906	69.631	0.081	188	8.22	0	0	0.457	00.07	-0.136	0.963	0.367	-13.429	7.829	16.594	61.869	20.906	69.631	0.068	158	6.857	0	0	-0.018	00.07	-0.136	0.963	0.668	16.725	61.947	16.594	61.869	20.906	69.631	0.08	185	7.956	0	0	0.51	00.07	-0.136	0.956	0.662	16.462	61.71	16.594	61.869	20.906	69.631	0.081	184	8.088	0	0	0.492	00.074	-0.132	0.963	0.666	16.637	61.947	16.594	61.869	20.906	69.631	0.08	184	8.088	0	0	0.51	00.07	-0.136	0.959	0.668	16.813	62.264	16.594	61.869	20.906	69.631	0.079	180	8.044	0	0	0.527	00.074	-0.14	0.959	0.667	16.637	61.71	16.594	61.869	20.906	69.631	0.082	186	8.044	0	0	0.457	00.07	-0.136	0.963	0.667	16.681	62.105	16.594	61.869	20.906	69.631	0.083	190	8.352	0	0	0.44	00.074	-0.136	0.963	0.225	-27.626	-17.886	16.594	61.869	20.906	69.631	0.068	151	6.637	0	0	-0.246	00.074	-0.136	0.963	0.225	-27.626	-17.886	16.594	61.869	20.906	69.631	0.068	151	6.637	0	0	-0.246	00.074	-0.136	0.959	0.219	-27.846	-18.044	16.594	61.869	20.906	69.631	0.066	152	6.549	0	0	-0.229	00.066	-0.132	0.963	0.224	-27.67	-17.965	16.594	61.869	20.906	69.631	0.065	151	6.549	0	0	-0.299	00.074	-0.136	0.959	0.669	16.857	62.185	16.594	61.869	20.906	69.631	0.083	185	8.088	0	0	0.475	00.074	-0.136	0.956	0.44	-6.044	21.279	16.594	61.869	20.906	69.631	0.069	161	6.945	0	0	0.088	00.07	-0.136	0.956	0.443	-5.956	20.884	16.594	61.869	20.906	69.631	0.07	161	7.033	0	0	0.141	00.07	-0.136	0.959	0.443	-6	20.884	16.594	61.869	20.906	69.631	0.071	165	7.209	0	0	0.193	00.07	-0.136	0.944	0.44	-6.132	21.358	16.594	61.869	20.906	69.631	0.073	161	7.341	0	0	0.176	00.07	-0.136	0.959	0.439	-6.308	20.409	16.594	61.869	20.906	69.631	0.073	160	7.253	0	0	0.176	00.07	-0.136	0.963	0.668	16.813	62.026	16.594	61.869	20.906	69.631	0.082	189	8.352	0	0	0.51	00.074	-0.132	0.963	0.353	-14.879	5.218	16.594	61.869	20.906	69.631	0.072	163	7.077	0	0	-0.035	00.07	-0.136	0.963	0.353	-14.791	4.822	16.594	61.869	20.906	69.631	0.07	157	7.033	0	0	-0.035	00.07	-0.14	0.959	0.352	-14.923	5.376	16.594	61.869	20.906	69.631	0.071	159	7.033	0	0	0.035	00.07	-0.14	0.959	0.352	-14.923	5.376	16.594	61.869	20.906	69.631	0.071	159	7.033	0	0	0.035	00.07	-0.128	0.967	0.669	16.813	62.185	16.594	61.869	20.906	69.631	0.084	187	8.264	0	0	0.475	00.074	-0.136	0.956	0.329	-17.253	0.787	16.594	61.869	20.906	69.631	0.073	160	7.297	0	0	0.07	00.074	-0.136	0.956	0.329	-17.253	0.787	16.594	61.869	20.906	69.631	0.073	160	7.297	0	0	0.07	00.078	-0.136	0.959	0.665	16.549	61.868	16.594	61.869	20.906	69.631	0.079	181	7.868	0	0	0.475	00.07	-0.136	0.959	0.665	16.505	61.631	16.594	61.869	20.906	69.631	0.083	153	6.769	0	0	0.492	00.07	-0.136	0.959	0.333	-16.725	1.736	16.594	61.869	20.906	69.631	0.067	157	6.593	0	0	-0.141	00.07	-0.136	0.959	0.333	-16.725	1.736	16.594	61.869	20.906	69.631	0.067	157	6.593	0	0	-0.141	00.07	-0.136	0.959	0.253	-24.857	-12.664	16.594	61.869	20.906	69.631	0.065	141	6.549	0	0	-0.211	00.07	-0.132	0.956	0.668	16.769	62.105	16.594	61.869	20.906	69.631	0.081	182	8.044	0	0	0.51	00.07	-0.136	0.959	0.667	16.637	61.947	16.594	61.869	20.906	69.631	0.082	181	7.956	0	0	0.475	00.07	-0.136	0.959	0.667	16.681	61.947	16.594	61.869	20.906	69.631	0.08	185	8	0	0	0.457	00.078	-0.14	0.959	0.665	16.505	61.473	16.594	61.869	20.906	69.631	0.079	182	8.044	0	0	0.492	00.07	-0.136	0.959	0.667	16.593	61.868	16.594	61.869	20.906	69.631	0.083	192	8.22	0	0	0.44	00.07	-0.14	0.956	0.27	-23.275	-9.895	16.594	61.869	20.906	69.631	0.068	160	6.549	0	0	-0.158	00.07	-0.136	0.963	0.665	16.374	61.552	16.594	61.869	20.906	69.631	0.082	185	8.088	0	0	0.422	00.074	-0.136	0.959	0.667	16.681	61.868	16.594	61.869	20.906	69.631	0.083	192	8.22	0	0	0.492	00.074	-0.136	0.963	0.666	16.593	61.868	16.594	61.869	20.906	69.631	0.084	190	8.132	0	0	0.545	00.07	-0.14	0.956	0.666	16.549	62.026	16.594	61.869	20.906	69.631	0.084	189	8.308	0	0	0.492	00.07	-0.132	-0.039	0.666	16.593	61.947	16.594	61.869	20.906	69.631	0.081	186	8.22	0	0	0.51	00.07	-0.136	0.959	0.667	16.593	61.868	16.594	61.869	20.906	69.631	0.082	187	8.396	0	0	0.475	00.07	-0.136	0.959	0.306	-19.407	-3.011	16.594	61.869	20.906	69.631	0.068	152	6.901	0	0	-0.141	00.074	-0.132	0.963	0.667	16.593	61.789	16.594	61.869	20.906	69.631	0.081	191	8	0	0	0.475	00.074	-0.136	0.956	0.668	16.637	61.789	16.594	61.869	20.906	69.631	0.081	186	8.308	0	0	0.492	00.066	-0.132	0.963	0.668	16.769	61.947	16.594	61.869	20.906	69.631	0.08	184	7.956	0	0	0.475	00.074	-0.14	0.963	0.279	-22.044	-7.442	16.594	61.869	20.906	69.631	0.069	157	6.989	0	0	-0.176	00.07	-0.136	0.963	0.286	-21.516	-7.204	16.594	61.869	20.906	69.631	0.067	150	6.462	0	0	-0.088	00.07	-0.14	0.963	0.665	16.418	61.473	16.594	61.869	20.906	69.631	0.079	183	8.088	0	0	0.475	00.07	-0.136	0.959	0.665	16.593	61.868	16.594	61.869	20.906	69.631	0.08	184	8.132	0	0	0.51	00.07	-0.132	0.959	0.665	16.418	61.552	16.594	61.869	20.906	69.631	0.083	187	8.308	0	0	0.492	00.07	-0.136	0.959	0.664	16.33	61.393	16.219	61.194	20.906	69.631	0.081	189	8.352	0	0	0.475	00.07	-0.132	0.959	0.666	16.549	61.71	16.219	61.194	20.906	69.631	0.081	192	8.396	0	0	0.457	00.074	-0.136	0.959	0.2	-30.044	-22.158	16.219	61.194	20.906	69.631	0.07	154	6.813	0	0	-0.193	00.074	-0.132	0.959	0.2	-29.956	-21.921	16.219	61.194	20.906	69.631	0.065	145	6.462	0	0	-0.387	00.07	-0.132	0.959	0.203	-29.824	-21.842	16.219	61.194	20.906	69.631	0.062	142	6.154	0	0	-0.229	00.066	-0.136	0.959	0.201	-29.912	-22.237	16.219	61.194	20.906	69.631	0.064	140	6.505	0	0	-0.246	00.07	-0.132	0.959	0.2	-30.132	-22	16.219	61.194	20.906	69.631	0.064	145	6.462	0	0	-0.211	00.07	-0.136	0.948	0.391	-10.967	12.101	16.219	61.194	20.906	69.631	0.071	160	7.033	0	0	0.141	00.074	-0.132	0.959	0.395	-10.791	12.101	16.219	61.194	20.906	69.631	0.071	165	7.121	0	0	0.018	00.074	-0.136	0.959	0.393	-10.879	12.18	16.219	61.194	20.906	69.631	0.069	160	7.077	0	0	0.088	00.074	-0.14	0.959	0.39	-10.967	12.338	16.219	61.194	20.906	69.631	0.072	160	7.209	0	0	-0.07	00.074	-0.136	0.959	0.389	-11.319	11.864	16.219	61.194	20.906	69.631	0.072	163	7.165	0	0	0.018	00.07	-0.136	0.963	0.666	16.637	61.868	16.219	61.194	20.906	69.631	0.079	184	8	0	0	0.51	00.07	-0.136	0.963	0.666	16.637	61.868	16.219	61.194	20.906	69.631	0.079	184	8	0	0	0.51	00.074	-0.136	0.963	0.299	-20.198	-4.435	16.219	61.194	20.906	69.631	0.069	151	6.725	0	0	-0.176	00.074	-0.132	0.963	0.669	16.813	62.105	16.219	61.194	20.906	69.631	0.08	183	7.956	0	0	0.492	00.074	-0.136	0.959	0.668	16.769	62.105	16.219	61.194	20.906	69.631	0.079	179	7.912	0	0	0.475	00.074	-0.136	0.959	0.668	16.813	62.343	16.219	61.194	20.906	69.631	0.083	186	8.132	0	0	0.51	00.07	-0.136	0.959	0.667	16.681	61.868	16.219	61.194	20.906	69.631	0.081	194	8.352	0	0	0.563	00.066	-0.14	0.956	0.175	-32.549	-26.589	16.219	61.194	20.906	69.631	0.063	140	6.154	0	0	-0.264	00.07	-0.136	0.967	0.668	16.637	62.105	16.219	61.194	20.906	69.631	0.082	188	8.396	0	0	0.492	00.074	-0.14	0.963	0.667	16.637	61.868	16.219	61.194	20.906	69.631	0.084	186	8.352	0	0	0.457	00.07	-0.132	0.959	0.668	16.769	62.105	16.219	61.194	20.906	69.631	0.083	186	8.22	0	0	0.545	00.074	-0.136	0.959	0.667	16.725	62.026	16.219	61.194	20.906	69.631	0.082	187	8.22	0	0	0.475	00.07	-0.136	0.959	0.667	16.725	62.343	16.219	61.194	20.906	69.631	0.084	187	8.308	0	0	0.527	00.074	-0.136	0.963	0.402	-9.956	14	16.219	61.194	20.906	69.631	0.072	162	7.121	0	0	0	00.07	-0.132	0.963	0.668	16.769	62.185	16.219	61.194	20.906	69.631	0.082	186	8.22	0	0	0.44	00.07	-0.136	0.959	0.667	16.681	62.026	16.219	61.194	20.906	69.631	0.082	187	8.352	0	0	0.51	00.07	-0.136	0.959	0.667	16.549	61.71	16.219	61.194	20.906	69.631	0.083	190	8.44	0	0	0.422	00.074	-0.132	0.963	0.665	16.418	61.552	16.219	61.194	20.906	69.631	0.081	184	8.264	0	0	0.527	00.07	-0.132	0.963	0.667	16.813	62.185	16.219	61.194	20.906	69.631	0.082	182	7.868	0	0	0.51	00.07	-0.136	0.959	0.259	-24.242	-11.477	16.219	61.194	20.906	69.631	0.065	147	6.637	0	0	-0.193	00.074	-0.136	0.959	0.667	16.725	62.026	16.219	61.194	20.906	69.631	0.082	182	8.132	0	0	0.475	00.066	-0.132	0.959	0.666	16.593	61.947	16.219	61.194	20.906	69.631	0.08	182	8.088	0	0	0.545	00.07	-0.136	0.959	0.668	16.593	62.026	16.219	61.194	20.906	69.631	0.084	186	8.352	0	0	0.457	00.074	-0.132	-0.039	0.667	16.681	62.026	16.219	61.194	20.906	69.631	0.08	181	7.912	0	0	0.527	00.07	-1.131	0.956	0.355	-14.615	6.246	16.219	61.194	20.906	69.631	0.071	160	7.077	0	0	0.053	00.07	-0.136	0.959	0.666	16.681	62.026	16.219	61.194	20.906	69.631	0.081	186	8.132	0	0	0.545	00.07	-0.14	0.959	0.667	16.681	61.947	16.219	61.194	20.906	69.631	0.08	188	8.088	0	0	0.563	00.07	-0.136	0.959	0.667	16.681	62.185	16.219	61.194	20.906	69.631	0.081	186	8.132	0	0	0.44	00.07	-0.132	0.959	0.666	16.725	62.026	16.219	61.194	20.906	69.631	0.08	181	8	0	0	0.527	00.07	-0.132	0.959	0.666	16.593	61.947	16.219	61.194	20.906	69.631	0.079	185	7.868	0	0	0.51	00.07	-0.136	0.959	0.273	-22.747	-9.42	16.219	61.194	20.906	69.631	0.062	150	6.11	0	0	-0.088	00.07	-0.136	0.959	0.271	-22.967	-9.262	16.219	61.194	20.906	69.631	0.066	147	6.374	0	0	-0.105	00.07	-0.136	0.959	0.273	-22.835	-9.499	16.219	61.194	20.906	69.631	0.066	144	6.33	0	0	-0.053	00.07	-0.136	0.963	0.269	-23.187	-9.499	16.219	61.194	20.906	69.631	0.066	146	6.462	0	0	-0.158	00.07	-0.136	0.959	0.276	-22.615	-8.787	16.219	61.194	20.906	69.631	0.067	155	6.945	0	0	-0.088	00.074	-0.136	0.959	0.666	16.593	61.868	16.219	61.194	20.906	69.631	0.084	189	8.352	0	0	0.492	00.074	-0.136	0.959	0.449	-5.429	21.754	16.219	61.194	20.906	69.631	0.074	167	7.385	0	0	0.229	00.07	-0.136	0.959	0.667	16.637	61.868	16.219	61.194	20.906	69.631	0.08	180	8.088	0	0	0.492	00.074	-0.136	0.959	0.667	16.725	61.947	16.406	61.531	20.906	69.631	0.08	185	8.088	0	0	0.545	00.074	-0.136	0.959	0.665	16.418	61.631	16.406	61.531	20.906	69.631	0.082	186	8.484	0	0	0.527	00.07	-0.136	0.959	0.664	16.286	61.314	16.406	61.531	20.906	69.631	0.083	185	8.264	0	0	0.563	00.07	-0.132	0.959	0.665	16.462	61.552	16.406	61.531	20.906	69.631	0.081	186	8.088	0	0	0.475	00.07	-0.136	0.959	0.482	-2.044	27.688	16.406	61.531	20.906	69.631	0.076	168	7.604	0	0	0.158	00.074	-0.136	0.963	0.669	16.769	62.105	16.406	61.531	20.906	69.631	0.08	181	8	0	0	0.457	00.074	-0.136	0.956	0.479	-2.308	27.688	16.406	61.531	20.906	69.631	0.075	174	7.604	0	0	0.158	00.074	-0.132	0.963	0.48	-2.22	28.004	16.406	61.531	20.906	69.631	0.072	167	7.253	0	0	0.07	00.078	-0.136	0.956	0.484	-1.912	28.558	16.406	61.531	20.906	69.631	0.074	165	7.341	0	0	0.141	00.078	-0.136	0.959	0.668	16.857	62.264	16.406	61.531	20.906	69.631	0.083	186	8.264	0	0	0.475	00.07	-0.132	0.959	0.21	-29.341	-20.971	16.406	61.531	20.906	69.631	0.066	152	6.549	0	0	-0.299	00.07	-0.136	0.959	0.211	-28.989	-20.338	16.406	61.531	20.906	69.631	0.063	142	6.242	0	0	-0.281	00.074	-0.132	0.956	0.211	-28.989	-20.576	16.406	61.531	20.906	69.631	0.067	151	6.593	0	0	-0.229	00.07	-0.136	0.959	0.208	-29.429	-21.051	16.406	61.531	20.906	69.631	0.066	152	6.549	0	0	-0.246	00.074	-0.136	0.956	0.668	16.725	62.026	16.406	61.531	20.906	69.631	0.082	185	8.132	0	0	0.545	00.07	-0.132	0.956	0.668	16.725	62.185	16.406	61.531	20.906	69.631	0.083	187	8.396	0	0	0.492	00.07	-0.136	0.959	0.286	-21.648	-7.046	16.406	61.531	20.906	69.631	0.071	159	6.945	0	0	-0.088	00.074	-0.144	0.956	0.285	-21.604	-7.046	16.406	61.531	20.906	69.631	0.067	152	6.813	0	0	-0.141	00.074	-0.136	0.959	0.668	16.769	62.264	16.406	61.531	20.906	69.631	0.083	188	8.264	0	0	0.545	00.074	-0.136	0.959	0.668	16.769	62.105	16.406	61.531	20.906	69.631	0.084	191	8.308	0	0	0.527	00.07	-0.132	0.959	0.667	16.681	62.185	16.406	61.531	20.906	69.631	0.083	191	8.22	0	0	0.475	00.074	-0.136	0.948	0.668	16.769	62.185	16.406	61.531	20.906	69.631	0.08	184	8.176	0	0	0.492	00.07	-0.136	0.959	0.668	16.813	62.026	16.406	61.531	20.906	69.631	0.08	184	8.132	0	0	0.457	00.07	-0.136	0.959	0.666	16.681	62.026	16.406	61.531	20.906	69.631	0.084	190	8.396	0	0	0.545	00.074	-0.132	0.959	0.667	16.593	61.947	16.406	61.531	20.906	69.631	0.081	184	8.044	0	0	0.475	00.074	-0.136	0.959	0.665	16.505	61.789	16.406	61.531	20.906	69.631	0.079	185	8.088	0	0	0.492	00.074	-0.136	0.959	0.665	16.505	61.789	16.406	61.531	20.906	69.631	0.079	185	8.088	0	0	0.492	00.074	-0.136	0.959	0.159	-34.132	-29.358	16.406	61.531	20.906	69.631	0.062	139	6.242	0	0	-0.316	00.074	-0.136	0.959	0.667	16.725	62.026	16.406	61.531	20.906	69.631	0.083	188	8.308	0	0	0.51	00.074	-0.136	0.959	0.162	-33.824	-28.725	16.406	61.531	20.906	69.631	0.061	138	6.286	0	0	-0.369	00.074	-0.136	0.959	0.667	16.637	61.868	16.406	61.531	20.906	69.631	0.08	181	8.088	0	0	0.51	00.07	-0.136	0.959	0.164	-33.736	-28.725	16.406	61.531	20.906	69.631	0.062	143	6.374	0	0	-0.299	00.074	-0.136	0.963	0.666	16.549	61.868	16.406	61.531	20.906	69.631	0.082	184	8.132	0	0	0.475	00.074	-0.136	0.959	0.667	16.593	61.947	16.406	61.531	20.906	69.631	0.08	185	8	0	0	0.563	00.074	-0.136	0.959	0.203	-29.912	-21.684	16.406	61.531	20.906	69.631	0.065	146	6.462	0	0	-0.264	00.074	-0.136	0.956	0.205	-29.736	-21.763	16.406	61.531	20.906	69.631	0.064	147	6.593	0	0	-0.246	00.07	-0.144	0.967	0.204	-29.956	-22	16.406	61.531	20.906	69.631	0.065	144	6.242	0	0	-0.246	00.07	-0.132	0.959	0.204	-29.78	-21.842	16.406	61.531	20.906	69.631	0.068	148	6.286	0	0	-0.316	00.07	-0.132	0.959	0.204	-29.78	-21.842	16.406	61.531	20.906	69.631	0.068	148	6.286	0	0	-0.316	00.074	-0.136	0.963	0.461	-3.846	25.077	16.406	61.531	20.906	69.631	0.073	170	7.297	0	0	0.141	00.074	-0.136	0.963	0.464	-3.67	25.156	16.406	61.531	20.906	69.631	0.076	175	7.429	0	0	0.141	00.074	-0.136	0.963	0.464	-3.67	25.156	16.406	61.531	20.906	69.631	0.076	175	7.429	0	0	0.141	00.074	-0.136	0.952	0.464	-3.582	25.235	16.406	61.531	20.906	69.631	0.072	168	7.165	0	0	0.123	00.07	-0.136	0.959	0.667	16.593	61.868	16.406	61.531	20.906	69.631	0.08	179	7.912	0	0	0.51	00.07	-0.132	0.959	0.345	-15.626	3.873	16.406	61.531	20.906	69.631	0.068	157	6.769	0	0	0	00.074	-0.14	0.959	0.667	16.681	61.947	16.406	61.531	20.906	69.631	0.08	178	7.956	0	0	0.475	00.07	-0.136	0.959	0.667	16.725	62.026	16.406	61.531	20.906	69.631	0.08	179	7.912	0	0	0.527	00.074	-0.136	0.959	0.665	16.505	61.71	16.406	61.531	20.906	69.631	0.08	179	8	0	0	0.44	00.074	-0.136	0.963	0.664	16.33	61.552	16.406	61.531	20.906	69.631	0.08	181	8.088	0	0	0.492	00.066	-0.132	0.952	0.666	16.549	61.631	16.406	61.531	20.906	69.631	0.08	187	7.956	0	0	0.492	00.074	-0.14	0.959	0.665	16.505	61.71	16.406	61.531	20.906	69.631	0.082	189	8.352	0	0	0.527	00.074	-0.132	-0.039	0.383	-12.066	10.044	16.406	61.531	20.906	69.631	0.072	165	7.121	0	0	0.018	00.07	-0.136	0.959	0.667	16.505	61.71	16.312	61.362	20.906	69.631	0.084	189	8.264	0	0	0.492	00.07	-0.136	0.959	0.666	16.505	61.868	16.312	61.362	20.906	69.631	0.078	182	8	0	0	0.475	00.074	-0.136	0.959	0.667	16.637	62.105	16.312	61.362	20.906	69.631	0.081	187	8.132	0	0	0.492	00.07	-0.14	0.959	0.667	16.681	61.947	16.312	61.362	20.906	69.631	0.078	181	8.132	0	0	0.44	00.074	-0.136	0.956	0.669	16.681	61.868	16.312	61.362	20.906	69.631	0.08	182	8.176	0	0	0.492	00.074	-0.14	0.959	0.669	16.813	62.343	16.312	61.362	20.906	69.631	0.082	180	8.132	0	0	0.475	00.07	-0.136	0.959	0.669	16.857	62.343	16.312	61.362	20.906	69.631	0.081	181	8	0	0	0.527	00.07	-0.136	0.967	0.668	16.813	62.185	16.312	61.362	20.906	69.631	0.081	186	8	0	0	0.475	00.074	-0.136	0.963	0.669	16.769	62.343	16.312	61.362	20.906	69.631	0.082	183	8.044	0	0	0.51	00.074	-0.14	0.959	0.667	16.681	62.343	16.312	61.362	20.906	69.631	0.08	183	7.956	0	0	0.475	00.074	-0.14	0.963	0.33	-17.121	1.103	16.312	61.362	20.906	69.631	0.069	158	6.725	0	0	-0.105	00.074	-0.136	0.959	0.669	16.725	62.026	16.312	61.362	20.906	69.631	0.08	185	8.088	0	0	0.475	00.066	-0.136	0.963	0.667	16.681	62.026	16.312	61.362	20.906	69.631	0.08	184	8.132	0	0	0.492	00.07	-0.132	0.959	0.665	16.549	62.026	16.312	61.362	20.906	69.631	0.085	190	8.352	0	0	0.527	00.074	-0.136	0.959	0.667	16.505	61.71	16.312	61.362	20.906	69.631	0.081	186	8.132	0	0	0.457	00.074	-0.136	0.959	0.669	16.725	62.185	16.312	61.362	20.906	69.631	0.08	182	8.132	0	0	0.527	00.074	-0.136	0.959	0.181	-31.934	-25.481	16.312	61.362	20.906	69.631	0.067	155	6.593	0	0	-0.352	00.07	-0.132	0.959	0.182	-31.978	-25.64	16.312	61.362	20.906	69.631	0.064	147	6.286	0	0	-0.352	00.074	-0.136	0.967	0.187	-31.407	-24.769	16.312	61.362	20.906	69.631	0.066	146	6.374	0	0	-0.229	00.074	-0.136	0.956	0.182	-31.846	-25.165	16.312	61.362	20.906	69.631	0.065	147	6.374	0	0	-0.299	00.074	-0.136	0.963	0.667	16.681	62.026	16.312	61.362	20.906	69.631	0.08	184	8	0	0	0.492	00.078	-0.132	0.959	0.172	-32.945	-26.985	16.312	61.362	20.906	69.631	0.065	144	6.374	0	0	-0.316	00.078	-0.132	0.967	0.171	-32.769	-26.905	16.312	61.362	20.906	69.631	0.062	145	6.33	0	0	-0.352	00.07	-0.132	-0.039	0.174	-32.813	-27.538	16.312	61.362	20.906	69.631	0.063	145	6.286	0	0	-0.246	00.074	-0.136	0.959	0.166	-33.516	-28.409	16.312	61.362	20.906	69.631	0.064	146	6.505	0	0	-0.352	00.074	-0.14	0.963	0.174	-32.637	-26.668	16.312	61.362	20.906	69.631	0.065	146	6.593	0	0	-0.316	00.074	-0.136	0.959	0.173	-32.901	-27.143	16.312	61.362	20.906	69.631	0.062	140	6.11	0	0	-0.334	00.074	-0.136	0.959	0.669	16.769	62.105	16.312	61.362	20.906	69.631	0.082	189	8.352	0	0	0.475	00.07	-0.132	0.959	0.253	-24.813	-12.664	16.312	61.362	20.906	69.631	0.067	151	6.857	0	0	-0.053	00.07	-0.132	0.959	0.253	-24.813	-12.664	16.312	61.362	20.906	69.631	0.067	151	6.857	0	0	-0.053	00.074	-0.136	0.959	0.253	-24.681	-12.505	16.312	61.362	20.906	69.631	0.068	150	6.505	0	0	-0.281	00.07	-0.136	0.959	0.663	16.286	61.156	16.312	61.362	20.906	69.631	0.08	181	8	0	0	0.457	00.07	-0.136	0.959	0.424	-7.802	18.114	16.312	61.362	20.906	69.631	0.074	160	7.385	0	0	0.105	00.062	-0.14	0.963	0.422	-7.978	17.64	16.312	61.362	20.906	69.631	0.073	161	7.385	0	0	0.07	00.074	-0.136	0.959	0.666	16.681	62.026	16.312	61.362	20.906	69.631	0.083	187	8.264	0	0	0.492	00.07	-0.136	0.963	0.668	16.725	62.026	16.312	61.362	20.906	69.631	0.08	187	7.956	0	0	0.457	00.074	-0.132	0.959	0.665	16.549	61.789	16.312	61.362	20.906	69.631	0.081	183	8	0	0	0.598	00.07	-0.136	0.959	0.666	16.637	62.026	16.312	61.362	20.906	69.631	0.084	189	8.308	0	0	0.457	00.074	-0.136	0.963	0.664	16.418	61.393	16.312	61.362	20.906	69.631	0.081	186	8.22	0	0	0.51	00.07	-0.14	0.959	0.666	16.505	61.71	16.312	61.362	20.906	69.631	0.078	180	7.912	0	0	0.422	00.07	-0.14	0.963	0.666	16.462	61.71	16.312	61.362	20.906	69.631	0.084	185	8.088	0	0	0.51	00.07	-0.136	0.959	0.665	16.462	61.552	16.312	61.362	20.906	69.631	0.082	182	8.22	0	0	0.44	00.066	-0.136	0.959	0.665	16.505	61.789	16.312	61.362	20.906	69.631	0.078	180	7.956	0	0	0.475	00.066	-0.132	0.959	0.148	-35.407	-31.495	16.312	61.362	20.938	69.688	0.06	132	5.846	0	0	-0.352	00.074	-0.136	0.959	0.149	-35.143	-31.02	16.312	61.362	20.938	69.688	0.061	140	6.198	0	0	-0.404	00.074	-0.136	0.959	0.149	-35.143	-31.02	16.312	61.362	20.938	69.688	0.061	140	6.198	0	0	-0.404	00.074	-0.136	0.959	0.154	-34.571	-30.308	16.312	61.362	20.938	69.688	0.062	138	6.022	0	0	-0.404	00.074	-0.136	0.959	0.154	-34.571	-30.308	16.312	61.362	20.938	69.688	0.062	138	6.022	0	0	-0.404	00.074	-0.136	0.959	0.154	-34.571	-30.308	16.312	61.362	20.938	69.688	0.062	138	6.022	0	0	-0.404	00.07	-0.132	0.959	0.667	16.681	61.947	16.188	61.138	20.938	69.688	0.081	185	8.044	0	0	0.404	00.07	-0.132	0.959	0.667	16.681	61.947	16.188	61.138	20.938	69.688	0.081	185	8.044	0	0	0.404	00.074	-0.136	0.963	0.665	16.462	61.71	16.188	61.138	20.938	69.688	0.078	181	8.132	0	0	0.492	00.07	-0.136	0.959	0.459	-4.286	24.048	16.188	61.138	20.938	69.688	0.071	161	7.077	0	0	0.105	00.07	-0.136	0.959	0.459	-4.286	24.048	16.188	61.138	20.938	69.688	0.071	161	7.077	0	0	0.105	00.07	-0.136	0.963	0.669	16.681	62.026	16.188	61.138	20.938	69.688	0.083	187	8.22	0	0	0.545	00.07	-0.136	0.963	0.669	16.681	62.026	16.188	61.138	20.938	69.688	0.083	187	8.22	0	0	0.545	00.07	-0.136	0.959	0.47	-3.187	26.185	16.188	61.138	20.938	69.688	0.075	168	7.341	0	0	0.211	00.07	-0.136	0.959	0.669	16.901	62.264	16.188	61.138	20.938	69.688	0.082	187	8.176	0	0	0.422	00.07	-0.136	0.959	0.667	16.681	61.868	16.188	61.138	20.938	69.688	0.08	182	7.912	0	0	0.422	00.074	-0.136	0.963	0.668	16.681	62.026	16.188	61.138	20.938	69.688	0.078	181	7.912	0	0	0.51	00.074	-0.136	0.959	0.669	16.725	62.026	16.188	61.138	20.938	69.688	0.081	187	8.176	0	0	0.51	00.074	-0.136	0.956	0.668	16.769	62.185	16.188	61.138	20.938	69.688	0.082	187	8.22	0	0	0.492	00.07	-0.136	-0.039	0.288	-21.165	-5.543	16.188	61.138	20.938	69.688	0.069	160	6.901	0	0	-0.211	00.07	-0.132	0.952	0.295	-20.725	-5.464	16.188	61.138	20.938	69.688	0.068	149	6.418	0	0	-0.105	00.07	-0.136	0.959	0.295	-20.549	-4.831	16.188	61.138	20.938	69.688	0.069	157	6.637	0	0	-0.141	00.074	-0.14	0.959	0.639	-2.44	7.987	16.188	61.138	20.938	69.688	0.068	155	6.857	0	0	-0.176	00.07	-0.136	0.959	0.666	16.593	61.71	16.188	61.138	20.938	69.688	0.082	184	8.132	0	0	0.545	00.07	-0.136	0.959	0.666	16.593	61.71	16.188	61.138	20.938	69.688	0.082	184	8.132	0	0	0.545	00.074	-0.128	0.967	0.665	16.505	61.631	16.188	61.138	20.938	69.688	0.081	188	8.132	0	0	0.457	00.07	-0.136	0.959	0.669	16.769	62.185	16.188	61.138	20.938	69.688	0.081	179	8.132	0	0	0.475	00.078	-0.136	0.956	0.668	16.813	62.264	16.188	61.138	20.938	69.688	0.083	186	8.176	0	0	0.492	00.074	-0.132	0.959	0.668	16.681	62.105	16.188	61.138	20.938	69.688	0.085	191	8.527	0	0	0.563	00.074	-0.136	0.959	0.669	16.813	62.185	16.188	61.138	20.938	69.688	0.082	185	8.132	0	0	0.492	00.078	-0.136	0.959	0.433	-6.703	20.013	16.188	61.138	20.938	69.688	0.074	166	7.341	0	0	0.176	00.066	-0.132	0.952	0.667	16.681	62.026	16.188	61.138	20.938	69.688	0.08	185	7.956	0	0	0.457	00.07	-0.132	0.956	0.43	-6.923	19.459	16.188	61.138	20.938	69.688	0.075	166	7.297	0	0	0.264	00.078	-0.132	0.963	0.433	-6.659	19.618	16.188	61.138	20.938	69.688	0.072	164	7.209	0	0	0.07	00.07	-0.132	0.959	0.666	16.593	61.868	16.188	61.138	20.938	69.688	0.079	183	8.044	0	0	0.457	00.078	-0.14	0.959	0.373	-12.637	9.332	16.188	61.138	20.938	69.688	0.071	157	6.901	0	0	0.141	00.066	-0.136	0.959	0.666	16.637	61.947	16.188	61.138	20.938	69.688	0.08	185	8.176	0	0	0.475	00.074	-0.136	0.963	0.664	16.418	61.631	16.188	61.138	20.938	69.688	0.083	187	8.352	0	0	0.527	00.066	-0.136	0.963	0.668	16.637	62.026	16.188	61.138	20.938	69.688	0.079	179	7.912	0	0	0.527	00.07	-0.136	0.959	0.667	16.593	61.789	16.188	61.138	20.938	69.688	0.08	183	8.088	0	0	0.51	00.07	-0.136	0.956	0.666	16.637	61.947	16.188	61.138	20.938	69.688	0.08	186	8.22	0	0	0.44	00.07	-0.136	0.963	0.666	16.637	61.947	16.188	61.138	20.938	69.688	0.081	184	8.264	0	0	0.51	00.07	-0.148	0.952	0.668	16.637	61.947	16.188	61.138	20.938	69.688	0.081	187	8	0	0	0.492	00.074	-0.14	0.956	0.233	-26.879	-16.699	16.188	61.138	20.938	69.688	0.066	152	6.637	0	0	-0.281	00.07	-0.136	0.959	0.234	-26.747	-16.462	16.188	61.138	20.938	69.688	0.065	148	6.505	0	0	-0.281	00.074	-0.14	0.963	0.235	-26.703	-16.382	16.188	61.138	20.938	69.688	0.066	146	6.681	0	0	-0.123	00.07	-0.136	0.963	0.667	16.681	61.947	16.188	61.138	20.938	69.688	0.08	182	8.044	0	0	0.457	00.07	-0.136	0.959	0.189	-31.143	-24.215	16.188	61.138	20.938	69.688	0.063	147	6.374	0	0	-0.316	00.074	-0.132	0.963	0.667	16.681	61.868	16.188	61.138	20.938	69.688	0.082	190	8.308	0	0	0.527	00.074	-0.132	0.963	0.185	-31.538	-24.769	16.188	61.138	20.938	69.688	0.065	149	6.374	0	0	-0.246	00.074	-0.128	0.959	0.191	-31.099	-24.136	16.188	61.138	20.938	69.688	0.065	140	6.462	0	0	-0.211	00.074	-0.128	0.959	0.191	-31.099	-24.136	16.188	61.138	20.938	69.688	0.065	140	6.462	0	0	-0.211	00.074	-0.14	0.959	0.667	16.769	62.105	16.188	61.138	20.938	69.688	0.084	189	8.308	0	0	0.58	00.07	-0.132	0.959	0.667	16.725	62.026	16.188	61.138	20.938	69.688	0.08	180	7.956	0	0	0.492	00.066	-0.136	0.963	0.667	16.637	61.947	16.188	61.138	20.938	69.688	0.082	188	8.088	0	0	0.475	00.074	-0.132	0.959	0.159	-34.22	-29.596	16.188	61.138	20.938	69.688	0.063	148	6.374	0	0	-0.264	00.07	-0.132	0.959	0.162	-33.956	-29.121	16.25	61.25	20.938	69.688	0.063	142	6.242	0	0	-0.387	00.074	-0.136	0.963	0.666	16.637	61.947	16.25	61.25	20.938	69.688	0.083	194	8.527	0	0	0.545	00.074	-0.136	0.959	0.667	16.637	61.947	16.25	61.25	20.938	69.688	0.08	184	8.264	0	0	0.475	00.07	-0.136	0.959	0.409	-9.385	14.791	16.25	61.25	20.938	69.688	0.071	162	7.253	0	0	0.088	00.07	-0.136	0.959	0.668	16.681	62.105	16.25	61.25	20.938	69.688	0.08	182	7.956	0	0	0.422	00.07	-0.132	0.959	0.665	16.549	61.868	16.25	61.25	20.938	69.688	0.081	186	8.132	0	0	0.563	00.07	-0.14	0.967	0.669	16.945	62.422	16.25	61.25	20.938	69.688	0.08	181	7.956	0	0	0.475	00.07	-0.14	0.967	0.669	16.945	62.422	16.25	61.25	20.938	69.688	0.08	181	7.956	0	0	0.475	00.074	-0.136	0.959	0.667	16.549	61.71	16.25	61.25	20.938	69.688	0.079	182	7.956	0	0	0.457	00.074	-0.136	0.959	0.265	-23.495	-10.29	16.25	61.25	20.938	69.688	0.064	148	6.418	0	0	-0.193	00.066	-0.132	0.959	0.667	16.593	61.789	16.25	61.25	20.938	69.688	0.081	187	8.22	0	0	0.475	00.074	-0.132	0.963	0.668	16.813	62.264	16.25	61.25	20.938	69.688	0.08	183	7.956	0	0	0.51	00.066	-0.14	0.959	0.669	16.769	62.105	16.25	61.25	20.938	69.688	0.08	185	8.132	0	0	0.492	00.07	-0.14	0.959	0.668	16.725	62.185	16.25	61.25	20.938	69.688	0.08	182	7.912	0	0	0.475	00.07	-0.132	0.963	0.313	-18.747	-1.903	16.25	61.25	20.938	69.688	0.066	151	6.593	0	0	-0.105	00.07	-0.136	0.959	0.316	-18.571	-1.745	16.25	61.25	20.938	69.688	0.065	151	6.681	0	0	-0.035	00.074	-0.136	0.959	0.317	-18.659	-1.824	16.25	61.25	20.938	69.688	0.066	155	6.769	0	0	-0.035	00.07	-0.136	0.963	0.316	-18.571	-1.666	16.25	61.25	20.938	69.688	0.069	153	6.901	0	0	-0.018	00.078	-0.132	0.952	0.317	-18.484	-1.349	16.25	61.25	20.938	69.688	0.068	151	6.725	0	0	-0.035	00.07	-0.136	0.959	0.314	-18.835	-1.587	16.25	61.25	20.938	69.688	0.07	160	6.857	0	0	0	00.078	-0.132	0.956	0.667	16.681	61.868	16.25	61.25	20.938	69.688	0.078	180	7.868	0	0	0.492	00.07	-0.136	0.959	0.241	-26	-14.325	16.25	61.25	20.938	69.688	0.065	146	6.33	0	0	-0.193	00.066	-0.132	0.963	0.247	-25.209	-13.692	16.25	61.25	20.938	69.688	0.064	145	6.593	0	0	-0.158	00.074	-0.136	0.967	0.243	-25.868	-14.404	16.25	61.25	20.938	69.688	0.068	153	6.813	0	0	-0.176	00.07	-0.14	0.959	0.24	-26.088	-15.037	16.25	61.25	20.938	69.688	0.066	150	6.593	0	0	-0.246	00.07	-0.132	0.959	0.668	16.725	62.264	16.25	61.25	20.938	69.688	0.083	191	8.44	0	0	0.492	00.074	-0.132	0.963	0.197	-30.352	-22.633	16.25	61.25	20.938	69.688	0.062	143	6.462	0	0	-0.316	00.078	-0.136	0.959	0.196	-30.703	-23.503	16.25	61.25	20.938	69.688	0.065	145	6.374	0	0	-0.316	00.07	-0.136	0.959	0.195	-30.571	-23.345	16.25	61.25	20.938	69.688	0.062	142	6.242	0	0	-0.246	00.074	-0.136	0.959	0.194	-30.791	-23.662	16.25	61.25	20.938	69.688	0.066	153	6.462	0	0	-0.211	00.07	-0.136	0.963	0.196	-30.615	-23.266	16.25	61.25	20.938	69.688	0.065	146	6.374	0	0	-0.229	00.074	-0.136	0.959	0.195	-30.484	-23.029	16.25	61.25	20.938	69.688	0.062	137	6.286	0	0	-0.316	00.07	-0.128	0.959	0.667	16.681	61.947	16.25	61.25	20.938	69.688	0.081	185	8.132	0	0	0.475	00.07	-0.136	0.963	0.667	16.725	62.026	16.25	61.25	20.938	69.688	0.083	187	8.176	0	0	0.51	00.066	-0.14	0.959	0.233	-26.791	-16.303	16.25	61.25	20.938	69.688	0.065	152	6.549	0	0	-0.105	00.078	-0.136	0.963	0.231	-27.011	-16.778	16.25	61.25	20.938	69.688	0.067	151	6.637	0	0	-0.141	00.074	-0.132	0.963	0.238	-26.571	-16.145	16.25	61.25	20.938	69.688	0.065	144	6.462	0	0	-0.193	00.07	-0.136	0.963	0.665	16.462	61.631	16.25	61.25	20.938	69.688	0.081	184	8.088	0	0	0.457	00.074	-0.136	0.959	0.372	-12.945	8.778	16.25	61.25	20.938	69.688	0.074	157	7.121	0	0	0.088	00.07	-0.14	0.959	0.368	-13.121	8.066	16.25	61.25	20.938	69.688	0.072	161	7.165	0	0	-0.07	00.07	-0.132	0.963	0.37	-13.121	8.382	16.25	61.25	20.938	69.688	0.071	161	7.209	0	0	0.053	00.07	-0.132	0.959	0.668	16.769	62.185	16.25	61.25	20.938	69.688	0.082	185	8.22	0	0	0.457	00.074	-0.136	0.959	0.366	-13.473	7.829	16.25	61.25	20.938	69.688	0.071	156	6.813	0	0	0.018	00.07	-0.132	0.959	0.665	16.549	61.552	16.25	61.25	20.938	69.688	0.079	180	7.912	0	0	0.527	00.074	-0.14	0.959	0.667	16.637	61.789	16.25	61.25	20.938	69.688	0.081	183	8.176	0	0	0.475	00.078	-0.132	0.948	0.22	-27.978	-18.202	16.25	61.25	20.938	69.688	0.064	145	6.374	0	0	-0.299	00.07	-0.136	0.956	0.665	16.549	61.631	16.25	61.25	20.938	69.688	0.081	184	8.22	0	0	0.475	00.074	-0.132	0.959	0.665	16.462	61.71	16.25	61.25	20.938	69.688	0.084	191	8.396	0	0	0.475	00.07	-0.136	0.959	0.663	16.286	61.314	16.25	61.25	20.938	69.688	0.082	185	8.132	0	0	0.457	00.066	-0.136	0.959	0.44	-5.912	21.358	16.25	61.25	20.938	69.688	0.07	166	7.165	0	0	0.123	00.066	-0.136	0.959	0.44	-5.912	21.358	16.25	61.25	20.938	69.688	0.07	166	7.165	0	0	0.123	00.07	-0.136	0.963	0.442	-5.956	21.121	16.531	61.756	20.938	69.688	0.073	168	7.297	0	0	0.07	00.07	-0.136	0.959	0.442	-5.824	21.437	16.531	61.756	20.938	69.688	0.075	166	7.56	0	0	0.053	00.074	-0.132	0.963	0.437	-6.176	21.596	16.531	61.756	20.938	69.688	0.073	151	7.121	0	0	0.176	00.074	-0.132	0.959	0.443	-5.956	21.042	16.531	61.756	20.938	69.688	0.072	164	7.341	0	0	0.141	00.074	-0.136	0.963	0.665	16.462	61.631	16.531	61.756	20.938	69.688	0.082	187	8.044	0	0	0.44	00.07	-0.132	0.963	0.357	-14.308	6.167	16.531	61.756	20.938	69.688	0.071	165	7.165	0	0	0.07	00.07	-0.136	0.956	0.354	-14.747	5.297	16.531	61.756	20.938	69.688	0.071	164	6.989	0	0	-0.088	00.07	-0.132	0.959	0.668	16.725	62.185	16.531	61.756	20.938	69.688	0.08	183	8.088	0	0	0.475	00.066	-0.136	0.971	0.36	-14.396	5.851	16.531	61.756	20.938	69.688	0.07	158	6.901	0	0	0.035	00.074	-0.132	0.959	0.354	-14.923	4.822	16.531	61.756	20.938	69.688	0.071	161	7.077	0	0	0.018	00.07	-0.136	-0.039	0.337	-16.418	2.132	16.531	61.756	20.938	69.688	0.066	159	6.813	0	0	0.105	00.074	-0.136	0.959	0.335	-16.769	1.736	16.531	61.756	20.938	69.688	0.067	150	6.989	0	0	-0.088	00.074	-0.136	0.963	0.335	-16.505	2.448	16.531	61.756	20.938	69.688	0.071	164	7.033	0	0	0.035	00.07	-0.136	0.959	0.666	16.549	61.71	16.531	61.756	20.938	69.688	0.082	186	8.176	0	0	0.598	00.074	-0.136	0.967	0.336	-16.549	1.974	16.531	61.756	20.938	69.688	0.071	159	6.989	0	0	-0.141	00.07	-0.136	0.959	0.669	16.857	62.343	16.531	61.756	20.938	69.688	0.082	182	8.132	0	0	0.492	00.074	-0.136	0.959	0.668	16.769	62.343	16.531	61.756	20.938	69.688	0.08	182	8.088	0	0	0.475	00.078	-0.132	0.963	0.248	-25.209	-13.297	16.531	61.756	20.938	69.688	0.064	147	6.462	0	0	-0.229	00.074	-0.132	0.963	0.667	16.769	62.026	16.531	61.756	20.938	69.688	0.08	183	7.912	0	0	0.475	00.074	-0.132	0.963	0.667	16.769	62.026	16.531	61.756	20.938	69.688	0.08	183	7.912	0	0	0.475	00.074	-0.132	0.959	0.669	16.725	61.868	16.531	61.756	20.938	69.688	0.081	185	8.088	0	0	0.457	00.07	-0.132	0.959	0.665	16.505	61.631	16.531	61.756	20.938	69.688	0.083	187	8.396	0	0	0.527	00.07	-0.132	0.963	0.275	-22.659	-8.708	16.531	61.756	20.938	69.688	0.066	151	6.505	0	0	-0.158	00.074	-0.136	0.959	0.272	-22.703	-9.024	16.531	61.756	20.938	69.688	0.067	147	6.681	0	0	-0.229	00.074	-0.136	0.959	0.275	-22.615	-8.866	16.531	61.756	20.938	69.688	0.069	157	6.945	0	0	-0.158	00.074	-0.136	0.959	0.273	-22.703	-8.945	16.531	61.756	20.938	69.688	0.069	161	6.989	0	0	-0.229	00.07	-0.136	0.963	0.275	-22.615	-8.708	16.531	61.756	20.938	69.688	0.068	152	6.769	0	0	-0.176	00.07	-0.132	0.963	0.666	16.593	61.868	16.531	61.756	20.938	69.688	0.08	184	7.956	0	0	0.457	00.07	-0.136	0.963	0.668	16.725	62.105	16.531	61.756	20.938	69.688	0.081	185	8.132	0	0	0.475	00.07	-0.132	0.948	0.31	-19.231	-2.853	16.531	61.756	20.938	69.688	0.065	152	6.769	0	0	-0.176	00.074	-0.14	0.959	0.314	-18.747	-2.141	16.531	61.756	20.938	69.688	0.067	151	6.593	0	0	-0.053	00.07	-0.132	0.959	0.309	-19.055	-2.299	16.531	61.756	20.938	69.688	0.068	154	6.637	0	0	-0.141	00.07	-0.136	0.959	0.31	-19.275	-2.853	16.531	61.756	20.938	69.688	0.068	151	6.857	0	0	-0.035	00.074	-0.136	0.959	0.667	16.637	61.947	16.531	61.756	20.938	69.688	0.081	186	8.132	0	0	0.492	00.07	-0.136	0.963	0.285	-21.56	-6.571	16.531	61.756	20.938	69.688	0.069	142	6.418	0	0	-0.035	00.074	-0.132	-0.039	0.667	16.769	61.947	16.531	61.756	20.938	69.688	0.08	186	8.22	0	0	0.422	00.07	-0.136	0.963	0.284	-21.956	-7.6	16.531	61.756	20.938	69.688	0.064	151	6.505	0	0	-0.088	00.07	-0.136	0.959	0.281	-21.956	-7.521	16.531	61.756	20.938	69.688	0.064	149	6.637	0	0	-0.141	00.078	-0.132	0.963	0.667	16.593	61.947	16.531	61.756	20.938	69.688	0.083	188	8.088	0	0	0.563	00.074	-0.136	0.959	0.665	16.505	61.789	16.531	61.756	20.938	69.688	0.08	184	8.176	0	0	0.44	00.074	-0.136	0.959	0.196	-30.396	-22.712	16.531	61.756	20.938	69.688	0.064	136	6.198	0	0	-0.334	00.074	-0.136	0.959	0.199	-30.308	-22.712	16.531	61.756	20.938	69.688	0.065	146	6.637	0	0	-0.316	00.066	-0.14	0.959	0.2	-30	-21.763	16.531	61.756	20.938	69.688	0.066	150	6.681	0	0	-0.334	00.07	-0.14	0.963	0.2	-29.956	-21.842	16.531	61.756	20.938	69.688	0.066	148	6.374	0	0	-0.211	00.07	-0.136	0.959	0.668	16.593	61.789	16.531	61.756	20.938	69.688	0.08	186	8.132	0	0	0.527	00.074	-0.14	0.959	0.389	-11.099	11.785	16.531	61.756	20.938	69.688	0.072	160	7.033	0	0	-0.07	00.074	-0.132	0.959	0.39	-11.143	11.864	16.531	61.756	20.938	69.688	0.073	160	6.989	0	0	0	00.07	-0.136	0.959	0.387	-12.198	11.468	16.531	61.756	20.938	69.688	0.073	151	7.253	0	0	0.053	00.078	-0.14	0.948	0.388	-11.363	11.785	16.531	61.756	20.938	69.688	0.071	161	7.077	0	0	0.105	00.074	-0.14	0.959	0.392	-10.879	12.259	16.531	61.756	20.938	69.688	0.072	164	7.209	0	0	0.07	00.074	-0.132	0.959	0.665	16.418	61.631	16.531	61.756	20.938	69.688	0.08	184	8.044	0	0	0.475	00.07	-0.136	0.959	0.301	-19.978	-3.96	16.5	61.7	20.938	69.688	0.068	156	6.725	0	0	-0.053	00.074	-0.136	0.959	0.668	16.637	61.868	16.5	61.7	20.938	69.688	0.081	183	8.264	0	0	0.492	00.074	-0.136	0.959	0.668	16.769	62.105	16.5	61.7	20.938	69.688	0.079	180	7.824	0	0	0.475	00.07	-0.136	0.963	0.668	16.813	61.947	16.5	61.7	20.938	69.688	0.08	183	7.868	0	0	0.563	00.074	-0.132	-0.035	0.668	16.725	62.185	16.5	61.7	20.938	69.688	0.083	192	8.352	0	0	0.422	00.07	-0.136	0.959	0.669	16.769	62.105	16.5	61.7	20.938	69.688	0.082	186	8.132	0	0	0.475	00.07	-0.132	0.963	0.177	-32.242	-26.114	16.5	61.7	20.938	69.688	0.062	144	6.154	0	0	-0.369	00.07	-0.128	0.967	0.178	-32.286	-25.956	16.5	61.7	20.938	69.688	0.063	148	6.505	0	0	-0.211	00.074	-0.132	0.959	0.181	-31.978	-25.719	16.5	61.7	20.938	69.688	0.064	148	6.549	0	0	-0.387	00.07	-0.136	-0.039	0.181	-32.198	-25.877	16.5	61.7	20.938	69.688	0.066	153	6.593	0	0	-0.246	00.07	-0.136	0.959	0.177	-32.242	-25.798	16.5	61.7	20.938	69.688	0.062	145	6.286	0	0	-0.316	00.07	-0.136	0.959	0.177	-32.242	-25.798	16.5	61.7	20.938	69.688	0.062	145	6.286	0	0	-0.316	00.078	-0.136	0.959	0.666	16.505	61.789	16.5	61.7	20.938	69.688	0.082	187	8.044	0	0	0.457	00.078	-0.136	0.959	0.669	16.813	62.185	16.5	61.7	20.938	69.688	0.079	179	7.78	0	0	0.492	00.07	-0.136	0.963	0.665	16.505	61.631	16.5	61.7	20.938	69.688	0.083	190	8.22	0	0	0.51	00.074	-0.136	0.959	0.669	16.857	62.343	16.5	61.7	20.938	69.688	0.081	181	8.088	0	0	0.492	00.07	-0.136	0.959	0.667	16.813	62.105	16.5	61.7	20.938	69.688	0.078	180	7.868	0	0	0.457	00.07	-0.136	0.959	0.669	16.813	62.422	16.5	61.7	20.938	69.688	0.083	186	8.308	0	0	0.51	00.07	-0.136	0.963	0.259	-24.286	-11.952	16.5	61.7	20.938	69.688	0.066	147	6.505	0	0	-0.141	00.074	-0.132	0.959	0.666	16.505	61.71	16.5	61.7	20.938	69.688	0.082	185	8.22	0	0	0.475	00.07	-0.136	0.967	0.665	16.505	61.71	16.5	61.7	20.938	69.688	0.081	182	8.132	0	0	0.457	00.07	-0.132	0.963	0.668	16.725	62.105	16.5	61.7	20.938	69.688	0.08	186	8.132	0	0	0.457	00.07	-0.132	0.963	0.668	16.725	62.105	16.5	61.7	20.938	69.688	0.08	186	8.132	0	0	0.457	00.07	-0.136	0.963	0.669	16.813	62.185	16.5	61.7	20.938	69.688	0.081	186	8.176	0	0	0.492	00.07	-0.132	0.959	0.668	16.857	62.264	16.5	61.7	20.938	69.688	0.082	184	8.264	0	0	0.545	00.074	-0.136	0.959	0.355	-14.615	5.613	16.5	61.7	20.938	69.688	0.072	168	7.253	0	0	0.018	00.07	-0.136	0.975	0.363	-13.868	6.958	16.5	61.7	20.938	69.688	0.068	153	6.901	0	0	-0.018	00.07	-0.136	0.975	0.363	-13.868	6.958	16.5	61.7	20.938	69.688	0.068	153	6.901	0	0	-0.018	00.074	-0.136	0.963	0.668	16.637	61.947	16.5	61.7	20.938	69.688	0.082	185	8.22	0	0	0.492	00.07	-0.132	0.967	0.275	-22.527	-8.391	16.5	61.7	20.938	69.688	0.068	152	6.901	0	0	-0.141	00.07	-0.136	0.956	0.275	-22.484	-8.549	16.5	61.7	20.938	69.688	0.07	156	6.813	0	0	-0.158	00.07	-0.136	0.963	0.279	-22.176	-7.837	16.5	61.7	20.938	69.688	0.066	152	6.769	0	0	-0.246	00.074	-0.132	0.959	0.277	-22.176	-8.233	16.5	61.7	20.938	69.688	0.068	152	6.813	0	0	-0.193	00.07	-0.136	0.963	0.277	-22.352	-7.996	16.5	61.7	20.938	69.688	0.069	158	6.769	0	0	-0.123	00.07	-0.132	0.959	0.668	16.681	62.026	16.5	61.7	20.938	69.688	0.08	183	8.044	0	0	0.51	00.07	-0.136	-0.035	0.447	-5.56	21.912	16.5	61.7	20.938	69.688	0.071	163	7.165	0	0	0.123	00.074	-0.136	0.959	0.666	16.505	61.71	16.5	61.7	20.938	69.688	0.08	184	8.044	0	0	0.422	00.074	-0.136	0.963	0.666	16.593	61.789	16.5	61.7	20.938	69.688	0.08	186	8.176	0	0	0.51	00.07	-0.136	0.959	0.665	16.418	61.393	16.5	61.7	20.938	69.688	0.081	185	8	0	0	0.51	00.074	-0.136	0.967	0.666	16.505	61.71	16.5	61.7	20.938	69.688	0.081	188	8.132	0	0	0.492	00.074	-0.14	0.959	0.668	16.637	61.947	16.5	61.7	20.938	69.688	0.081	185	8.132	0	0	0.475	00.07	-0.132	0.959	0.481	-1.912	28.716	16.5	61.7	20.938	69.688	0.074	167	7.121	0	0	0.105	00.074	-0.136	0.959	0.484	-1.78	28.637	16.5	61.7	20.938	69.688	0.071	162	7.165	0	0	0.123	00.074	-0.132	0.963	0.483	-1.78	28.558	16.5	61.7	20.938	69.688	0.073	171	7.473	0	0	0.193	00.078	-0.14	0.959	0.485	-1.692	29.033	16.5	61.7	20.938	69.688	0.073	171	7.165	0	0	0.264	00.074	-0.136	0.959	0.48	-2.088	28.242	16.5	61.7	20.938	69.688	0.075	169	7.473	0	0	0.211	00.074	-0.14	0.959	0.668	16.637	62.026	16.5	61.7	20.938	69.688	0.081	185	8.176	0	0	0.457	00.07	-0.132	0.963	0.217	-28.462	-19.547	16.5	61.7	20.938	69.688	0.065	144	6.462	0	0	-0.299	00.07	-0.136	0.963	0.667	16.681	61.947	16.5	61.7	20.938	69.688	0.084	185	8.044	0	0	0.51	00.066	-0.136	0.959	0.668	16.725	62.105	16.5	61.7	20.938	69.688	0.081	182	8	0	0	0.527	00.066	-0.132	0.963	0.666	16.593	61.789	16.5	61.7	20.938	69.688	0.084	188	8.308	0	0	0.58	00.07	-0.132	0.959	0.666	16.593	61.789	16.344	61.419	20.938	69.688	0.08	187	8.088	0	0	0.457	00.066	-0.132	0.944	0.666	16.593	62.105	16.344	61.419	20.938	69.688	0.087	195	8.659	0	0	0.527	00.07	-0.132	0.963	0.287	-21.341	-6.334	16.344	61.419	20.938	69.688	0.069	156	6.989	0	0	-0.299	00.074	-0.136	0.956	0.292	-20.857	-5.859	16.344	61.419	20.938	69.688	0.066	152	6.769	0	0	-0.176	00.07	-0.136	0.959	0.291	-20.857	-5.464	16.344	61.419	20.938	69.688	0.068	154	6.813	0	0	-0.035	00.074	-0.136	0.959	0.291	-21.077	-6.255	16.344	61.419	20.938	69.688	0.066	150	6.813	0	0	-0.141	00.074	-0.136	0.959	0.669	16.857	62.264	16.344	61.419	20.938	69.688	0.084	189	8.352	0	0	0.492	00.07	-0.132	0.963	0.339	-16.154	3.16	16.344	61.419	20.938	69.688	0.071	165	7.121	0	0	-0.088	00.07	-0.132	0.948	0.342	-15.978	3.24	16.344	61.419	20.938	69.688	0.071	154	6.901	0	0	-0.018	00.074	-0.136	-0.039	0.339	-16.198	2.765	16.344	61.419	20.938	69.688	0.069	159	7.077	0	0	-0.018	00.074	-0.136	0.959	0.342	-15.934	3.319	16.344	61.419	20.938	69.688	0.069	155	6.989	0	0	-0.088	00.07	-0.132	0.959	0.34	-16.154	2.844	16.344	61.419	20.938	69.688	0.07	157	7.033	0	0	-0.053	00.074	-0.136	0.959	0.338	-16.198	3.081	16.344	61.419	20.938	69.688	0.067	154	6.813	0	0	0.035	00.07	-0.132	0.959	0.667	16.681	62.026	16.344	61.419	20.938	69.688	0.083	187	8.22	0	0	0.527	00.074	-0.136	0.959	0.669	16.769	62.264	16.344	61.419	20.938	69.688	0.085	191	8.484	0	0	0.563	00.07	-0.132	0.959	0.169	-33.121	-27.697	16.344	61.419	20.938	69.688	0.065	146	6.33	0	0	-0.352	00.07	-0.136	0.959	0.167	-33.385	-28.251	16.344	61.419	20.938	69.688	0.062	144	6.066	0	0	-0.299	00.074	-0.132	0.959	0.166	-33.516	-28.567	16.344	61.419	20.938	69.688	0.062	142	6.374	0	0	-0.246	00.074	-0.132	0.959	0.166	-33.516	-28.567	16.344	61.419	20.938	69.688	0.062	142	6.374	0	0	-0.246	00.07	-0.136	0.959	0.667	16.681	61.868	16.344	61.419	20.938	69.688	0.083	187	8	0	0	0.44	00.07	-0.132	0.967	0.209	-28.989	-20.101	16.344	61.419	20.938	69.688	0.063	148	6.505	0	0	-0.299	00.074	-0.136	0.959	0.667	16.637	61.868	16.344	61.419	20.938	69.688	0.081	185	8.308	0	0	0.492	00.07	-0.136	0.959	0.668	16.769	62.185	16.344	61.419	20.938	69.688	0.082	187	8.264	0	0	0.44	00.074	-0.14	0.959	0.668	16.681	62.105	16.344	61.419	20.938	69.688	0.081	186	8.044	0	0	0.475	00.074	-0.136	0.963	0.666	16.637	61.868	16.344	61.419	20.938	69.688	0.082	188	8.132	0	0	0.44	00.082	-0.128	0.952	0.469	-3.275	25.789	16.344	61.419	20.938	69.688	0.074	171	7.516	0	0	0.141	00.07	-0.132	0.959	0.467	-3.363	26.026	16.344	61.419	20.938	69.688	0.074	170	7.473	0	0	0.141	00.07	-0.136	0.959	0.669	16.901	62.343	16.344	61.419	20.938	69.688	0.084	191	8.527	0	0	0.527	00.074	-0.136	0.959	0.668	16.769	62.105	16.344	61.419	20.938	69.688	0.081	184	8.132	0	0	0.492	00.07	-0.136	0.959	0.668	16.725	62.105	16.344	61.419	20.938	69.688	0.083	192	8.308	0	0	0.545	00.07	-0.136	0.963	0.664	16.462	61.631	16.344	61.419	20.938	69.688	0.081	189	8.22	0	0	0.475	00.07	-0.136	0.959	0.346	-15.582	3.873	16.344	61.419	20.938	69.688	0.07	159	6.989	0	0	0.053	00.07	-0.136	0.959	0.348	-15.363	4.031	16.344	61.419	20.938	69.688	0.071	159	7.165	0	0	-0.07	00.07	-0.136	0.959	0.345	-15.582	3.793	16.344	61.419	20.938	69.688	0.069	165	7.209	0	0	-0.018	00.07	-0.136	0.959	0.349	-15.407	4.11	16.344	61.419	20.938	69.688	0.069	156	6.901	0	0	-0.018	00.07	-0.136	0.959	0.346	-15.582	3.793	16.344	61.419	20.938	69.688	0.068	156	6.857	0	0	-0.053	00.074	-0.136	0.959	0.665	16.549	61.552	16.344	61.419	20.938	69.688	0.085	194	8.44	0	0	0.492	00.07	-0.136	0.959	0.381	-11.89	10.756	16.344	61.419	20.938	69.688	0.072	163	7.253	0	0	0.07	00.074	-0.136	0.959	0.386	-11.495	11.231	16.344	61.419	20.938	69.688	0.071	157	7.077	0	0	0.035	00.074	-0.136	0.959	0.386	-11.495	11.231	16.344	61.419	20.938	69.688	0.071	157	7.077	0	0	0.035	00.07	-0.136	0.963	0.384	-11.802	11.073	16.344	61.419	20.938	69.688	0.07	163	7.209	0	0	-0.018	00.07	-0.136	0.963	0.384	-11.802	11.073	16.344	61.419	20.938	69.688	0.07	163	7.209	0	0	-0.018	00.074	-0.136	0.959	0.223	-27.802	-18.281	16.344	61.419	20.938	69.688	0.069	149	6.418	0	0	-0.264	00.07	-0.136	0.952	0.668	16.769	61.947	16.344	61.419	20.938	69.688	0.082	184	8.132	0	0	0.475	00.074	-0.136	0.963	0.668	16.681	62.185	16.344	61.419	20.938	69.688	0.081	186	8.044	0	0	0.545	00.074	-0.136	0.959	0.668	16.725	62.185	16.344	61.419	20.938	69.688	0.081	186	8	0	0	0.51	00.074	-0.136	0.959	0.669	16.813	62.185	16.344	61.419	20.938	69.688	0.08	183	7.912	0	0	0.492	00.078	-0.132	0.959	0.667	16.681	62.105	16.344	61.419	20.938	69.688	0.08	182	8.088	0	0	0.492	00.066	-0.136	1.954	0.324	-17.648	0.312	16.344	61.419	20.938	69.688	0.069	157	6.813	0	0	-0.141	00.074	-0.136	0.959	0.327	-17.341	0.866	16.344	61.419	20.938	69.688	0.071	165	7.077	0	0	-0.088	00.07	-0.132	0.959	0.326	-17.516	0.233	16.344	61.419	20.938	69.688	0.07	160	6.945	0	0	0	00.066	-0.128	0.959	0.327	-17.429	0.312	16.562	61.812	20.938	69.688	0.069	161	6.857	0	0	-0.158	00.074	-0.132	0.959	0.325	-17.604	0.47	16.562	61.812	20.938	69.688	0.069	155	6.857	0	0	-0.123	00.074	-0.132	0.959	0.669	16.813	62.264	16.562	61.812	20.938	69.688	0.082	188	8.22	0	0	0.527	00.074	-0.136	0.963	0.187	-31.538	-24.69	16.562	61.812	20.938	69.688	0.063	145	6.374	0	0	-0.316	00.074	-0.136	0.959	0.669	16.857	62.264	16.562	61.812	20.938	69.688	0.081	186	8.088	0	0	0.51	00.066	-0.136	0.959	0.67	16.857	62.264	16.562	61.812	20.938	69.688	0.081	185	8.088	0	0	0.51	00.07	-0.132	0.959	0.668	16.769	62.264	16.562	61.812	20.938	69.688	0.081	187	8.22	0	0	0.545	00.066	-0.132	0.967	0.668	16.769	62.264	16.562	61.812	20.938	69.688	0.083	190	8.352	0	0	0.457	00.07	-0.136	-0.039	0.174	-32.637	-26.905	16.562	61.812	20.938	69.688	0.062	136	6.154	0	0	-0.299	00.07	-0.14	0.959	0.174	-32.549	-26.589	16.562	61.812	20.938	69.688	0.063	147	6.242	0	0	-0.281	00.078	-0.136	0.963	0.174	-32.769	-27.064	16.562	61.812	20.938	69.688	0.067	149	6.286	0	0	-0.229	00.074	-0.136	0.959	0.175	-32.418	-26.431	16.562	61.812	20.938	69.688	0.061	141	6.374	0	0	-0.316	00.07	-0.136	0.959	0.172	-32.945	-27.143	16.562	61.812	20.938	69.688	0.062	141	6.242	0	0	-0.281	00.074	-0.14	0.959	0.669	16.901	62.501	16.562	61.812	20.938	69.688	0.08	181	8.044	0	0	0.51	00.074	-0.132	0.959	0.667	16.681	62.026	16.562	61.812	20.938	69.688	0.083	187	8.352	0	0	0.492	00.074	-0.136	0.952	0.255	-24.681	-12.426	16.562	61.812	20.938	69.688	0.062	144	6.198	0	0	0	00.074	-0.132	0.959	0.669	16.901	62.501	16.562	61.812	20.938	69.688	0.083	188	8.088	0	0	0.457	00.078	-0.136	0.959	0.668	16.769	62.026	16.562	61.812	20.938	69.688	0.083	185	8.176	0	0	0.492	00.078	-0.136	0.959	0.669	16.857	62.264	16.562	61.812	20.938	69.688	0.08	181	7.956	0	0	0.545	00.074	-0.136	0.959	0.665	16.505	61.631	16.562	61.812	20.938	69.688	0.079	178	7.824	0	0	0.492	00.074	-0.136	0.959	0.429	-7.231	19.064	16.562	61.812	20.938	69.688	0.077	173	7.78	0	0	0.105	00.07	-0.136	0.944	0.428	-7.407	18.431	16.562	61.812	20.938	69.688	0.074	162	7.473	0	0	0.035	00.074	-0.14	0.959	0.425	-7.758	17.877	16.562	61.812	20.938	69.688	0.072	165	7.165	0	0	0.088	00.074	-0.132	0.959	0.425	-7.846	17.481	16.562	61.812	20.938	69.688	0.075	167	7.429	0	0	0.018	00.074	-0.136	0.959	0.422	-7.89	17.877	16.562	61.812	20.938	69.688	0.076	166	7.648	0	0	0.176	00.074	-0.132	0.967	0.424	-7.846	18.114	16.562	61.812	20.938	69.688	0.075	166	7.473	0	0	0.158	00.07	-0.136	0.959	0.667	16.681	61.947	16.562	61.812	20.938	69.688	0.08	186	8.088	0	0	0.422	00.07	-0.128	0.959	0.308	-19.275	-2.536	16.562	61.812	20.938	69.688	0.071	181	7.868	0	0	-0.07	00.07	-0.132	0.963	0.315	-18.659	-1.429	16.562	61.812	20.938	69.688	0.073	166	7.341	0	0	-0.176	00.074	-0.136	0.967	0.319	-18.132	-0.637	16.562	61.812	20.938	69.688	0.073	164	7.253	0	0	-0.123	00.07	-0.136	0.963	0.323	-17.824	-0.163	16.562	61.812	20.938	69.688	0.069	156	6.769	0	0	-0.07	00.07	-0.136	0.963	0.323	-17.824	-0.163	16.562	61.812	20.938	69.688	0.069	156	6.769	0	0	-0.07	00.07	-0.136	0.959	0.155	-34.703	-30.466	16.562	61.812	20.938	69.688	0.062	139	6.198	0	0	-0.369	00.07	-0.136	0.963	0.154	-34.791	-30.387	16.562	61.812	20.938	69.688	0.062	142	6.198	0	0	-0.369	00.074	-0.136	0.959	0.164	-33.604	-28.725	16.562	61.812	20.938	69.688	0.062	138	6.286	0	0	-0.316	00.07	-0.132	0.959	0.157	-34.308	-29.516	16.562	61.812	20.938	69.688	0.064	148	6.33	0	0	-0.334	00.07	-0.136	0.963	0.163	-34.22	-29.912	16.562	61.812	20.938	69.688	0.06	139	6.066	0	0	-0.334	00.074	-0.132	0.959	0.667	16.637	61.789	16.562	61.812	20.938	69.688	0.084	197	8.264	0	0	0.44	00.074	-0.136	0.959	0.668	16.725	62.264	16.562	61.812	20.938	69.688	0.081	187	8.132	0	0	0.475	00.07	-0.136	0.959	0.668	16.769	62.264	16.562	61.812	20.938	69.688	0.082	187	8.088	0	0	0.422	00.074	-0.132	0.959	0.46	-4.154	24.444	16.562	61.812	20.938	69.688	0.075	166	7.341	0	0	0.158	00.07	-0.136	0.963	0.459	-4.242	24.444	16.562	61.812	20.938	69.688	0.075	169	7.473	0	0	0.211	00.078	-0.136	0.963	0.669	16.857	62.264	16.562	61.812	20.938	69.688	0.083	188	8.264	0	0	0.527	00.07	-0.136	0.948	0.47	-3.099	26.343	16.562	61.812	20.938	69.688	0.076	172	7.473	0	0	0.193	00.07	-0.136	0.948	0.47	-3.099	26.343	16.562	61.812	20.938	69.688	0.076	172	7.473	0	0	0.193	00.07	-0.124	0.956	0.472	-2.923	26.422	16.562	61.812	20.969	69.744	0.072	171	7.165	0	0	0.123	00.07	-0.132	0.959	0.472	-3.143	26.264	16.562	61.812	20.969	69.744	0.078	180	7.868	0	0	0.229	00.074	-0.136	0.963	0.47	-3.055	26.501	16.562	61.812	20.969	69.744	0.074	170	7.341	0	0	0.211	00.07	-0.136	0.959	0.663	16.286	61.314	16.562	61.812	20.969	69.744	0.083	189	8.264	0	0	0.545	00.07	-0.136	0.959	0.663	16.286	61.314	16.562	61.812	20.969	69.744	0.083	189	8.264	0	0	0.545	00.07	-0.136	0.959	0.666	15.934	61.71	16.562	61.812	20.969	69.744	0.083	159	7.912	0	0	0.475	00.07	-0.136	0.956	0.296	-20.462	-4.831	16.75	62.15	20.969	69.744	0.073	160	7.121	0	0	-0.246	00.07	-0.136	0.952	0.295	-20.505	-4.989	16.75	62.15	20.969	69.744	0.069	158	7.033	0	0	-0.264	00.074	-0.136	0.959	0.296	-20.505	-4.989	16.75	62.15	20.969	69.744	0.069	154	6.769	0	0	-0.229	00.07	-0.136	0.963	0.668	16.945	62.343	16.75	62.15	20.969	69.744	0.08	181	8	0	0	0.51	00.066	-0.136	0.959	0.418	-8.286	16.927	16.75	62.15	20.969	69.744	0.069	154	6.989	0	0	0.053	00.07	-0.132	-0.039	0.418	-8.242	17.007	16.75	62.15	20.969	69.744	0.07	161	6.989	0	0	0.088	00.074	-0.14	0.963	0.417	-8.418	16.611	16.75	62.15	20.969	69.744	0.071	162	6.945	0	0	0.141	00.07	-0.132	0.959	0.417	-8.374	16.69	16.75	62.15	20.969	69.744	0.071	159	7.165	0	0	0.035	00.07	-0.136	0.963	0.417	-8.549	15.899	16.75	62.15	20.969	69.744	0.07	161	7.209	0	0	0.105	00.066	-0.132	0.963	0.416	-8.374	16.927	16.75	62.15	20.969	69.744	0.071	161	7.033	0	0	0.123	00.074	-0.136	0.959	0.666	16.637	61.631	16.75	62.15	20.969	69.744	0.083	185	8.132	0	0	0.527	00.074	-0.136	0.971	0.435	-6.571	19.934	16.75	62.15	20.969	69.744	0.071	160	7.121	0	0	0.105	00.074	-0.14	0.959	0.432	-6.835	19.697	16.75	62.15	20.969	69.744	0.072	164	7.033	0	0	0.07	00.074	-0.136	0.959	0.429	-7.231	18.985	16.75	62.15	20.969	69.744	0.077	179	7.56	0	0	0.211	00.07	-0.14	0.959	0.434	-6.879	19.459	16.75	62.15	20.969	69.744	0.072	162	7.165	0	0	0.07	00.07	-0.136	0.959	0.666	16.637	61.947	16.75	62.15	20.969	69.744	0.08	184	8.044	0	0	0.475	00.074	-0.136	0.952	0.376	-12.549	8.936	16.75	62.15	20.969	69.744	0.069	159	7.209	0	0	-0.07	00.07	-0.144	0.963	0.372	-12.945	8.778	16.75	62.15	20.969	69.744	0.069	165	7.077	0	0	0	00.074	-0.14	0.959	0.373	-12.901	9.095	16.75	62.15	20.969	69.744	0.074	164	7.429	0	0	-0.088	00.07	-0.14	0.956	0.377	-12.418	9.569	16.75	62.15	20.969	69.744	0.069	156	6.725	0	0	0.158	00.07	-0.132	0.963	0.377	-12.418	9.49	16.75	62.15	20.969	69.744	0.07	161	6.901	0	0	0.018	00.074	-0.14	0.959	0.668	16.725	62.185	16.75	62.15	20.969	69.744	0.079	185	8.044	0	0	0.545	00.062	-0.128	0.952	0.665	16.505	61.71	16.75	62.15	20.969	69.744	0.082	180	8.176	0	0	0.492	00.074	-0.136	0.959	0.669	16.857	62.185	16.75	62.15	20.969	69.744	0.08	182	8	0	0	0.492	00.07	-0.136	0.956	0.236	-26.352	-15.749	16.75	62.15	20.969	69.744	0.066	148	6.462	0	0	-0.211	00.07	-0.136	0.959	0.238	-26.264	-15.275	16.75	62.15	20.969	69.744	0.065	147	6.418	0	0	-0.176	00.074	-0.132	0.959	0.669	16.901	62.501	16.75	62.15	20.969	69.744	0.081	183	8.044	0	0	0.492	00.074	-0.136	0.959	0.195	-30.659	-23.108	16.75	62.15	20.969	69.744	0.061	141	6.374	0	0	-0.176	00.074	-0.136	0.959	0.191	-31.099	-23.82	16.75	62.15	20.969	69.744	0.065	145	6.549	0	0	-0.281	00.07	-0.136	0.963	0.19	-31.099	-23.741	16.75	62.15	20.969	69.744	0.064	144	6.066	0	0	-0.281	00.07	-0.128	0.959	0.192	-30.967	-23.82	16.75	62.15	20.969	69.744	0.063	144	6.242	0	0	-0.264	00.074	-0.136	0.959	0.194	-30.659	-23.266	16.75	62.15	20.969	69.744	0.065	147	6.549	0	0	-0.299	00.066	-0.14	0.952	0.668	16.681	62.105	16.75	62.15	20.969	69.744	0.082	183	8.132	0	0	0.563	00.07	-0.136	0.959	0.162	-33.868	-28.963	16.75	62.15	20.969	69.744	0.062	145	6.33	0	0	-0.281	00.07	-0.136	0.959	0.162	-34	-29.2	16.75	62.15	20.969	69.744	0.067	149	6.593	0	0	-0.281	00.07	-0.136	0.959	0.668	16.725	61.868	16.75	62.15	20.969	69.744	0.082	184	8	0	0	0.545	00.074	-0.14	0.963	0.665	16.505	61.473	16.75	62.15	20.969	69.744	0.081	180	8	0	0	0.475	00.07	-0.136	0.963	0.663	16.33	61.235	16.75	62.15	20.969	69.744	0.082	185	8.132	0	0	0.475	00.074	-0.136	0.959	0.669	16.813	62.105	16.75	62.15	20.969	69.744	0.083	184	8.132	0	0	0.475	00.074	-0.128	0.967	0.407	-9.209	15.82	16.75	62.15	20.969	69.744	0.071	160	7.209	0	0	0.088	00.074	-0.136	0.963	0.663	16.286	61.473	16.75	62.15	20.969	69.744	0.081	186	8.044	0	0	0.492	00.07	-0.132	0.956	0.404	-9.692	14.475	16.75	62.15	20.969	69.744	0.07	164	7.165	0	0	0.018	00.074	-0.136	0.959	0.407	-9.473	14.633	16.75	62.15	20.969	69.744	0.07	160	6.989	0	0	0.07	00.07	-0.132	0.959	0.41	-9.253	15.029	16.75	62.15	20.969	69.744	0.071	165	6.945	0	0	0.088	00.07	-0.132	0.963	0.668	16.681	61.947	16.75	62.15	20.938	69.688	0.079	184	8	0	0	0.545	00.074	-0.132	0.959	0.266	-23.363	-9.895	16.75	62.15	20.938	69.688	0.066	148	6.637	0	0	-0.141	00.07	-0.132	0.956	0.665	16.374	61.552	16.75	62.15	20.938	69.688	0.081	184	7.912	0	0	0.527	00.07	-0.136	0.959	0.669	16.769	62.026	16.75	62.15	20.938	69.688	0.079	181	7.912	0	0	0.457	00.074	-0.132	0.956	0.667	16.725	62.026	16.75	62.15	20.938	69.688	0.081	184	8.176	0	0	0.51	00.078	-0.136	0.959	0.665	16.505	61.71	16.75	62.15	20.938	69.688	0.08	185	8.088	0	0	0.457	00.07	-0.136	0.959	0.316	-18.571	-1.112	17.125	62.825	20.938	69.688	0.066	156	6.901	0	0	-0.141	00.078	-0.14	0.956	0.312	-18.879	-1.903	17.125	62.825	20.938	69.688	0.069	151	6.549	0	0	-0.088	00.074	-0.132	0.959	0.668	16.725	62.026	17.125	62.825	20.938	69.688	0.078	183	8.088	0	0	0.527	00.066	-0.132	0.959	0.666	16.549	61.789	17.125	62.825	20.938	69.688	0.081	181	8.264	0	0	0.545	00.074	-0.128	0.959	0.668	16.769	62.264	17.125	62.825	20.938	69.688	0.082	187	8.308	0	0	0.527	00.078	-0.136	-0.039	0.666	16.549	61.789	17.125	62.825	20.938	69.688	0.08	181	7.956	0	0	0.475	00.074	-0.136	0.959	0.244	-25.56	-14.009	17.125	62.825	20.938	69.688	0.063	147	6.33	0	0	-0.211	00.07	-0.136	0.963	0.246	-25.341	-13.771	17.125	62.825	20.938	69.688	0.065	149	6.505	0	0	-0.229	00.074	-0.136	0.959	0.246	-25.516	-14.009	17.125	62.825	20.938	69.688	0.066	153	6.549	0	0	-0.158	00.074	-0.136	0.959	0.232	-26.747	-16.224	17.125	62.825	20.938	69.688	0.066	148	6.725	0	0	-0.141	00.07	-0.136	0.959	0.249	-25.165	-13.297	17.125	62.825	20.938	69.688	0.068	155	6.637	0	0	-0.193	00.074	-0.132	0.959	0.665	16.418	61.552	17.125	62.825	20.938	69.688	0.08	188	8.264	0	0	0.475	00.07	-0.14	0.959	0.198	-30.22	-22.396	17.125	62.825	20.938	69.688	0.065	145	6.198	0	0	-0.229	00.074	-0.132	0.959	0.201	-30.044	-22.316	17.125	62.825	20.938	69.688	0.065	148	6.33	0	0	-0.211	00.066	-0.136	0.959	0.198	-30.22	-22.396	17.125	62.825	20.938	69.688	0.065	143	6.286	0	0	-0.193	00.074	-0.132	0.952	0.203	-29.912	-22.237	17.125	62.825	20.938	69.688	0.065	144	6.418	0	0	-0.211	00.07	-0.14	0.948	0.202	-29.692	-21.288	17.125	62.825	20.938	69.688	0.064	143	6.374	0	0	-0.176	00.074	-0.136	0.959	0.666	16.549	61.631	17.125	62.825	20.938	69.688	0.081	184	8.176	0	0	0.457	00.07	-0.136	0.959	0.669	16.857	62.501	17.125	62.825	20.938	69.688	0.083	187	8.308	0	0	0.545	00.07	-0.136	0.959	0.665	16.549	61.552	17.125	62.825	20.938	69.688	0.08	182	8.044	0	0	0.457	00.07	-0.132	0.956	0.231	-26.967	-16.303	17.125	62.825	20.938	69.688	0.063	144	6.593	0	0	-0.211	00.074	-0.128	0.956	0.236	-26.659	-16.224	17.125	62.825	20.938	69.688	0.065	148	6.549	0	0	-0.264	00.066	-0.136	0.959	0.666	16.549	61.947	17.125	62.825	20.938	69.688	0.084	192	8.484	0	0	0.492	00.074	-0.136	0.959	0.371	-13.033	8.541	17.125	62.825	20.938	69.688	0.072	158	7.033	0	0	-0.035	00.07	-0.128	0.959	0.669	16.813	62.105	17.125	62.825	20.938	69.688	0.081	186	8.22	0	0	0.492	00.074	-0.128	0.959	0.666	16.637	62.026	17.125	62.825	20.938	69.688	0.08	180	8.088	0	0	0.492	00.07	-0.136	0.959	0.668	16.769	62.185	17.125	62.825	20.938	69.688	0.081	184	8.132	0	0	0.492	00.082	-0.132	0.963	0.668	16.681	62.105	17.125	62.825	20.938	69.688	0.082	182	8.176	0	0	0.598	00.074	-0.132	0.959	0.668	16.725	62.026	17.125	62.825	20.938	69.688	0.08	186	8	0	0	0.527	00.074	-0.136	0.959	0.229	-27.275	-17.49	17.125	62.825	20.938	69.688	0.067	147	6.33	0	0	-0.211	00.074	-0.136	0.959	0.226	-27.363	-17.174	17.125	62.825	20.938	69.688	0.062	144	6.505	0	0	-0.281	00.078	-0.136	0.959	0.226	-27.451	-17.174	17.125	62.825	20.938	69.688	0.064	144	6.374	0	0	-0.141	00.074	-0.136	0.959	0.224	-27.67	-17.965	17.125	62.825	20.938	69.688	0.064	145	6.549	0	0	-0.176	00.074	-0.136	0.963	0.669	16.681	61.947	17.125	62.825	20.938	69.688	0.08	182	7.824	0	0	0.457	00.074	-0.132	0.963	0.443	-5.824	21.437	17.125	62.825	20.938	69.688	0.07	166	7.121	0	0	0.176	00.07	-0.136	0.963	0.438	-6.22	21.042	17.125	62.825	20.938	69.688	0.074	165	7.429	0	0	0.07	00.07	-0.136	0.956	0.442	-6	20.963	17.125	62.825	20.938	69.688	0.071	160	7.077	0	0	0.158	00.074	-0.132	0.952	0.668	16.769	62.264	17.125	62.825	20.938	69.688	0.083	189	8.352	0	0	0.475	00.07	-0.132	0.959	0.439	-6.352	20.725	17.125	62.825	20.938	69.688	0.073	168	7.297	0	0	0.211	00.066	-0.136	0.959	0.669	16.813	62.185	17.125	62.825	20.938	69.688	0.077	175	7.78	0	0	0.492	00.074	-0.128	0.967	0.667	16.593	62.026	17.125	62.825	20.938	69.688	0.08	186	8.176	0	0	0.51	00.07	-0.132	0.963	0.353	-14.791	5.376	17.125	62.825	20.938	69.688	0.071	162	7.121	0	0	0	00.074	-0.136	0.959	0.668	16.637	62.026	17.125	62.825	20.938	69.688	0.08	186	8.22	0	0	0.492	00.066	-0.136	0.956	0.667	16.637	61.789	17.125	62.825	20.938	69.688	0.08	183	8	0	0	0.44	00.07	-0.132	0.959	0.669	16.725	62.105	17.125	62.825	20.938	69.688	0.08	177	7.868	0	0	0.475	00.074	-0.136	0.959	0.667	16.593	61.868	17.125	62.825	20.938	69.688	0.081	183	8	0	0	0.475	00.07	-0.132	0.959	0.331	-16.901	1.578	17.125	62.825	20.938	69.688	0.071	160	7.077	0	0	-0.123	00.074	-0.136	0.959	0.336	-16.462	2.527	17.125	62.825	20.938	69.688	0.072	159	6.945	0	0	-0.053	00.07	-0.136	0.959	0.332	-16.813	1.578	17.125	62.825	20.938	69.688	0.067	148	6.681	0	0	0	00.074	-0.136	0.959	0.333	-16.813	1.578	17.469	63.444	20.938	69.688	0.072	160	6.989	0	0	-0.211	00.07	-0.136	0.948	0.331	-16.945	1.341	17.469	63.444	20.938	69.688	0.068	151	6.813	0	0	-0.053	00.07	-0.136	0.956	0.667	16.681	62.026	17.469	63.444	20.938	69.688	0.08	183	8.132	0	0	0.51	00.074	-0.136	0.959	0.255	-24.637	-12.585	17.469	63.444	20.938	69.688	0.068	146	6.549	0	0	-0.141	00.078	-0.136	0.956	0.249	-25.165	-13.138	17.469	63.444	20.938	69.688	0.065	148	6.549	0	0	-0.123	00.07	-0.132	0.956	0.249	-25.209	-13.297	17.469	63.444	20.938	69.688	0.067	148	6.725	0	0	-0.176	00.074	-0.136	-0.039	0.252	-24.989	-13.297	17.469	63.444	20.938	69.688	0.067	156	6.725	0	0	-0.211	00.074	-0.136	-0.039	0.252	-24.989	-13.297	17.469	63.444	20.938	69.688	0.067	156	6.725	0	0	-0.211	00.074	-0.136	0.963	0.669	16.813	62.105	17.469	63.444	20.938	69.688	0.082	187	8.132	0	0	0.51	00.07	-0.136	0.944	0.273	-22.879	-9.341	17.469	63.444	20.938	69.688	0.067	150	6.462	0	0	-0.123	00.07	-0.136	0.959	0.273	-22.879	-8.945	17.469	63.444	20.938	69.688	0.066	152	6.637	0	0	-0.088	00.074	-0.136	0.959	0.274	-22.703	-8.629	17.469	63.444	20.938	69.688	0.068	149	6.505	0	0	-0.158	00.074	-0.136	0.959	0.274	-22.791	-9.024	17.469	63.444	20.938	69.688	0.064	144	6.462	0	0	-0.158	00.07	-0.136	0.963	0.273	-22.835	-9.341	17.469	63.444	20.938	69.688	0.068	157	6.681	0	0	-0.264	00.07	-0.128	0.952	0.669	16.813	62.264	17.469	63.444	20.938	69.688	0.081	184	8.044	0	0	0.527	00.07	-0.128	0.952	0.669	16.813	62.264	17.469	63.444	20.938	69.688	0.081	184	8.044	0	0	0.527	00.07	-0.136	0.963	0.67	16.857	62.264	17.469	63.444	20.938	69.688	0.08	184	8.044	0	0	0.492	00.07	-0.132	0.959	0.668	16.769	62.343	17.469	63.444	20.938	69.688	0.081	186	8.264	0	0	0.492	00.07	-0.136	0.959	0.669	16.857	62.343	17.469	63.444	20.938	69.688	0.081	186	8.132	0	0	0.422	00.07	-0.136	0.959	0.667	16.769	62.105	17.469	63.444	20.938	69.688	0.083	185	8.132	0	0	0.563	00.07	-0.136	0.956	0.284	-21.824	-7.125	17.469	63.444	20.938	69.688	0.066	154	6.593	0	0	-0.053	00.07	-0.132	0.959	0.288	-21.209	-5.859	17.469	63.444	20.938	69.688	0.069	150	6.725	0	0	-0.07	00.074	-0.132	0.959	0.287	-21.473	-6.888	17.469	63.444	20.938	69.688	0.068	151	6.769	0	0	-0.07	00.07	-0.132	0.959	0.288	-21.253	-6.413	17.469	63.444	20.938	69.688	0.068	148	6.462	0	0	-0.105	00.07	-0.132	0.959	0.288	-21.253	-6.413	17.469	63.444	20.938	69.688	0.068	148	6.462	0	0	-0.105	00.07	-0.128	0.959	0.67	16.857	62.264	17.469	63.444	20.938	69.688	0.08	181	8	0	0	0.457	00.074	-0.136	0.959	0.669	16.813	62.422	17.469	63.444	20.938	69.688	0.081	187	8.176	0	0	0.545	00.07	-0.136	0.959	0.669	16.901	62.343	17.469	63.444	20.938	69.688	0.08	183	8.044	0	0	0.492	00.07	-0.136	0.959	0.669	16.769	62.105	17.469	63.444	20.938	69.688	0.08	187	8.264	0	0	0.492	00.07	-0.136	0.963	0.203	-29.956	-21.763	17.469	63.444	20.938	69.688	0.062	147	6.374	0	0	-0.264	00.07	-0.136	0.959	0.206	-29.56	-21.525	17.469	63.444	20.938	69.688	0.068	152	6.769	0	0	-0.334	00.07	-0.136	0.959	0.667	16.725	62.185	17.469	63.444	20.938	69.688	0.084	189	8.308	0	0	0.527	00.074	-0.132	0.959	0.393	-10.923	12.338	17.469	63.444	20.938	69.688	0.075	168	7.429	0	0	0.07	00.07	-0.136	0.959	0.666	16.549	61.868	17.469	63.444	20.938	69.688	0.084	185	8.132	0	0	0.492	00.07	-0.14	0.959	0.668	16.725	62.026	17.469	63.444	20.938	69.688	0.081	187	8.22	0	0	0.545	00.07	-0.136	0.959	0.668	16.813	62.105	17.469	63.444	20.938	69.688	0.081	183	8.132	0	0	0.527	00.07	-0.132	0.963	0.666	16.593	61.868	17.469	63.444	20.938	69.688	0.081	184	7.956	0	0	0.492	00.074	-0.136	0.959	0.669	16.813	62.185	17.469	63.444	20.938	69.688	0.083	181	8.088	0	0	0.51	00.074	-0.136	0.959	0.301	-20.198	-4.04	17.469	63.444	20.938	69.688	0.068	152	6.681	0	0	-0.088	00.066	-0.136	0.967	0.308	-19.407	-2.932	17.469	63.444	20.938	69.688	0.068	154	6.769	0	0	-0.141	00.07	-0.136	0.959	0.302	-19.802	-3.802	17.469	63.444	20.938	69.688	0.067	149	6.549	0	0	-0.105	00.07	-0.136	0.959	0.302	-19.758	-3.248	17.469	63.444	20.938	69.688	0.065	147	6.813	0	0	-0.035	00.07	-0.136	0.963	0.302	-19.934	-4.119	17.469	63.444	20.938	69.688	0.069	155	6.637	0	0	-0.035	00.078	-0.14	0.94	0.668	16.681	62.026	17.469	63.444	20.938	69.688	0.08	187	8.176	0	0	0.51	00.074	-0.136	0.959	0.176	-32.374	-26.51	17.469	63.444	20.938	69.688	0.062	144	6.198	0	0	-0.193	00.074	-0.14	0.956	0.668	16.725	62.026	17.469	63.444	20.938	69.688	0.062	141	6.11	0	0	0.51	00.074	-0.132	0.959	0.183	-31.846	-25.323	17.469	63.444	20.906	69.631	0.065	149	6.374	0	0	-0.193	00.07	-0.136	0.959	0.182	-31.978	-25.877	17.469	63.444	20.906	69.631	0.066	149	6.462	0	0	-0.264	00.07	-0.128	0.959	0.182	-31.846	-25.323	17.469	63.444	20.906	69.631	0.063	147	6.418	0	0	-0.281	00.066	-0.128	0.956	0.667	16.681	62.026	17.469	63.444	20.906	69.631	0.08	184	8.132	0	0	0.492	00.074	-0.132	0.959	0.398	-10.396	13.209	17.469	63.444	20.906	69.631	0.073	163	7.077	0	0	0.07	00.07	-0.128	0.959	0.668	16.681	62.105	17.625	63.725	20.906	69.631	0.08	187	8.176	0	0	0.527	00.074	-0.136	0.959	0.666	16.549	61.71	17.625	63.725	20.906	69.631	0.08	183	7.736	0	0	0.457	00.074	-0.136	0.959	0.669	16.769	62.026	17.625	63.725	20.906	69.631	0.081	188	8.264	0	0	0.527	00.07	-0.136	0.959	0.669	16.901	62.185	17.625	63.725	20.906	69.631	0.08	187	8.088	0	0	0.475	00.074	-0.14	0.959	0.259	-24.11	-11.398	17.625	63.725	20.906	69.631	0.069	154	6.901	0	0	-0.193	00.07	-0.136	0.959	0.669	16.857	62.264	17.625	63.725	20.906	69.631	0.082	187	8.264	0	0	0.457	00.07	-0.132	0.959	0.261	-23.934	-11.398	17.625	63.725	20.906	69.631	0.07	164	7.121	0	0	-0.246	00.074	-0.136	0.959	0.262	-23.846	-11.002	17.625	63.725	20.906	69.631	0.073	166	7.297	0	0	-0.141	00.074	-0.136	0.959	0.262	-23.978	-11.24	17.625	63.725	20.906	69.631	0.08	180	7.736	0	0	-0.088	00.07	-0.136	-0.039	0.669	16.813	62.422	17.625	63.725	20.906	69.631	0.083	189	8.308	0	0	0.475	00.074	-0.136	0.959	0.367	-13.516	7.591	17.625	63.725	20.906	69.631	0.07	155	6.901	0	0	0.035	00.07	-0.132	0.959	0.666	16.593	61.789	17.625	63.725	20.906	69.631	0.087	201	8.747	0	0	0.527	00.07	-0.136	0.959	0.667	16.637	62.026	17.625	63.725	20.906	69.631	0.083	186	8.132	0	0	0.44	00.07	-0.136	0.959	0.668	16.813	62.343	17.625	63.725	20.906	69.631	0.082	188	8.308	0	0	0.457	00.07	-0.136	0.959	0.665	16.462	61.71	17.625	63.725	20.906	69.631	0.084	182	8.176	0	0	0.475	00.07	-0.136	0.952	0.669	16.769	62.185	17.625	63.725	20.906	69.631	0.079	186	8.044	0	0	0.492	00.07	-0.136	0.959	0.28	-22.088	-7.679	17.625	63.725	20.906	69.631	0.068	155	6.769	0	0	-0.176	00.07	-0.132	0.956	0.665	16.505	61.71	17.625	63.725	20.906	69.631	0.081	187	8.132	0	0	0.492	00.07	-0.136	0.959	0.281	-22.088	-8.075	17.625	63.725	20.906	69.631	0.077	175	7.604	0	0	-0.158	00.07	-0.132	0.963	0.277	-22.484	-8.549	17.625	63.725	20.906	69.631	0.072	162	7.165	0	0	-0.193	00.066	-0.132	0.959	0.28	-22.176	-7.758	17.625	63.725	20.906	69.631	0.074	167	7.473	0	0	-0.07	00.074	-0.132	0.963	0.669	16.857	62.343	17.625	63.725	20.906	69.631	0.082	185	8.044	0	0	0.51	00.074	-0.136	0.959	0.668	16.681	62.105	17.625	63.725	20.906	69.631	0.082	186	8.132	0	0	0.475	00.07	-0.136	0.956	0.669	16.857	62.422	17.625	63.725	20.906	69.631	0.082	184	8.264	0	0	0.492	00.07	-0.136	0.959	0.669	16.813	62.185	17.625	63.725	20.906	69.631	0.08	184	8.132	0	0	0.475	00.074	-0.136	0.959	0.447	-5.297	22.624	17.625	63.725	20.906	69.631	0.073	168	7.429	0	0	0.158	00.07	-0.136	0.959	0.65	16.242	61.868	17.625	63.725	20.906	69.631	0.084	191	8.396	0	0	0.475	00.074	-0.136	0.959	0.48	-2.264	27.925	17.625	63.725	20.906	69.631	0.074	174	7.473	0	0	0.193	00.074	-0.136	0.959	0.483	-1.912	28.637	17.625	63.725	20.906	69.631	0.074	169	7.692	0	0	0.141	00.062	-0.136	0.956	0.668	16.725	62.026	17.625	63.725	20.906	69.631	0.084	190	8.264	0	0	0.457	00.062	-0.14	0.959	0.667	16.725	62.026	17.625	63.725	20.906	69.631	0.083	188	8.132	0	0	0.51	00.07	-0.136	0.959	0.667	16.681	61.947	17.625	63.725	20.906	69.631	0.082	189	8.22	0	0	0.527	00.062	-0.136	0.967	0.669	16.769	62.105	17.625	63.725	20.906	69.631	0.077	183	7.824	0	0	0.457	00.074	-0.132	0.936	0.215	-28.505	-19.152	17.625	63.725	20.906	69.631	0.066	148	6.637	0	0	-0.264	00.074	-0.136	0.956	0.216	-28.593	-19.389	17.625	63.725	20.906	69.631	0.065	152	6.549	0	0	-0.229	00.07	-0.132	0.959	0.215	-28.154	-18.281	17.625	63.725	20.906	69.631	0.064	143	6.418	0	0	-0.176	00.074	-0.132	0.959	0.217	-28.462	-19.389	17.625	63.725	20.906	69.631	0.069	155	6.549	0	0	-0.176	00.07	-0.132	0.959	0.217	-28.549	-19.389	17.625	63.725	20.906	69.631	0.064	149	6.418	0	0	-0.229	00.07	-0.136	0.956	0.667	16.725	62.105	17.625	63.725	20.906	69.631	0.083	188	8.396	0	0	0.51	00.074	-0.14	0.956	0.29	-21.077	-6.334	17.625	63.725	20.906	69.631	0.068	147	6.593	0	0	-0.158	00.074	-0.136	0.959	0.668	16.725	62.105	17.625	63.725	20.906	69.631	0.081	187	8.176	0	0	0.475	00.07	-0.136	0.959	0.291	-21.121	-6.018	17.625	63.725	20.906	69.631	0.068	153	6.593	0	0	0.035	00.07	-0.132	0.963	0.289	-21.297	-6.413	17.625	63.725	20.906	69.631	0.07	158	6.813	0	0	-0.141	00.074	-0.136	0.959	0.291	-20.989	-6.018	17.625	63.725	20.906	69.631	0.069	150	6.813	0	0	-0.035	00.066	-0.132	0.959	0.667	16.593	61.868	17.625	63.725	20.906	69.631	0.081	189	8.176	0	0	0.457	00.074	-0.128	0.959	0.336	-16.505	2.211	17.625	63.725	20.906	69.631	0.07	163	7.165	0	0	-0.088	00.07	-0.136	0.959	0.666	16.593	61.789	17.625	63.725	20.906	69.631	0.084	192	8.44	0	0	0.492	00.07	-0.128	0.963	0.668	16.681	61.947	17.625	63.725	20.906	69.631	0.079	184	7.868	0	0	0.457	00.07	-0.132	0.944	0.669	16.813	62.343	17.625	63.725	20.906	69.631	0.084	185	8.308	0	0	0.527	00.07	-0.136	0.959	0.667	16.725	61.947	17.625	63.725	20.906	69.631	0.083	188	8.132	0	0	0.492	00.066	-0.14	0.956	0.668	16.813	62.105	17.625	63.725	20.906	69.631	0.079	180	8.088	0	0	0.457	00.074	-0.136	0.959	0.167	-33.473	-27.934	17.688	63.838	20.906	69.631	0.062	140	6.198	0	0	-0.281	00.07	-0.136	0.956	0.667	16.681	61.947	17.688	63.838	20.906	69.631	0.09	207	9.011	0	0	0.51	00.07	-0.136	1.95	0.668	16.725	61.947	17.688	63.838	20.906	69.631	0.087	199	8.659	0	0	0.527	00.07	-0.132	0.959	0.669	16.769	62.264	17.688	63.838	20.906	69.631	0.086	191	8.571	0	0	0.51	00.074	-0.132	0.967	0.669	16.769	62.026	17.688	63.838	20.906	69.631	0.083	191	8.308	0	0	0.475	00.074	-0.132	0.959	0.669	16.857	62.185	17.688	63.838	20.906	69.631	0.086	199	8.615	0	0	0.475	00.07	-0.132	0.959	0.209	-29.297	-20.813	17.688	63.838	20.906	69.631	0.067	151	6.637	0	0	-0.299	00.074	-0.136	0.959	0.669	16.901	62.343	17.688	63.838	20.906	69.631	0.084	187	8.176	0	0	0.563	00.074	-0.136	0.956	0.21	-28.989	-20.022	17.688	63.838	20.906	69.631	0.067	148	6.418	0	0	-0.264	00.074	-0.136	0.959	0.214	-28.813	-19.943	17.688	63.838	20.906	69.631	0.065	147	6.33	0	0	-0.264	00.07	-0.132	0.959	0.21	-29.033	-20.418	17.688	63.838	20.906	69.631	0.065	142	6.418	0	0	-0.264	00.07	-0.14	0.959	0.667	16.637	61.947	17.688	63.838	20.906	69.631	0.084	193	8.484	0	0	0.51	00.07	-0.14	0.959	0.667	16.637	61.947	17.688	63.838	20.906	69.631	0.084	193	8.484	0	0	0.51	00.074	-0.132	0.959	0.467	-3.495	25.393	17.688	63.838	20.906	69.631	0.073	172	7.297	0	0	0.141	00.07	-0.132	0.959	0.464	-3.846	24.998	17.688	63.838	20.906	69.631	0.075	174	7.253	0	0	0.105	00.07	-0.132	0.959	0.465	-3.67	25.393	17.688	63.838	20.906	69.631	0.075	169	7.385	0	0	0.211	00.074	-0.136	0.956	0.468	-3.582	25.393	17.688	63.838	20.906	69.631	0.074	170	7.429	0	0	0.123	00.074	-0.136	0.959	0.348	-15.363	4.11	17.688	63.838	20.906	69.631	0.071	157	7.121	0	0	0.018	00.074	-0.136	0.959	0.669	16.813	62.105	17.688	63.838	20.906	69.631	0.082	185	8.132	0	0	0.457	00.074	-0.136	0.963	0.669	16.857	62.185	17.688	63.838	20.906	69.631	0.085	192	8.484	0	0	0.492	00.07	-0.136	0.956	0.668	16.769	62.264	17.688	63.838	20.906	69.631	0.081	187	8.176	0	0	0.492	00.07	-0.136	0.956	0.668	16.769	62.264	17.688	63.838	20.906	69.631	0.083	184	8.176	0	0	0.527	00.078	-0.136	1.954	0.667	16.637	61.789	17.688	63.838	20.906	69.631	0.08	186	8.22	0	0	0.51	00.074	-0.136	0.959	0.381	-12.066	10.202	17.688	63.838	20.906	69.631	0.072	165	7.077	0	0	0.053	00.07	-0.144	0.963	0.67	16.901	62.422	17.688	63.838	20.906	69.631	0.08	187	8	0	0	0.475	00.07	-0.132	0.963	0.669	16.901	62.422	17.688	63.838	20.906	69.631	0.083	186	8.22	0	0	0.492	00.07	-0.136	0.963	0.67	16.945	62.264	17.688	63.838	20.906	69.631	0.083	189	8.308	0	0	0.475	00.07	-0.136	0.959	0.669	16.769	62.026	17.688	63.838	20.906	69.631	0.081	184	8.088	0	0	0.492	00.07	-0.14	0.959	0.666	16.549	61.789	17.688	63.838	20.906	69.631	0.082	188	8.308	0	0	0.475	00.07	-0.136	0.959	0.669	16.681	62.026	17.688	63.838	20.906	69.631	0.079	180	8.132	0	0	0.492	00.074	-0.14	0.963	0.209	-29.165	-20.655	17.688	63.838	20.906	69.631	0.065	137	6.33	0	0	-0.193	00.07	-0.136	0.963	0.665	16.418	61.552	17.688	63.838	20.906	69.631	0.08	181	8.044	0	0	0.492	00.074	-0.136	0.959	0.669	16.725	62.105	17.688	63.838	20.906	69.631	0.081	185	8.044	0	0	0.545	00.074	-0.136	0.952	0.667	16.769	62.026	17.688	63.838	20.906	69.631	0.08	184	8.132	0	0	0.51	00.066	-0.14	0.963	0.669	16.725	62.026	17.688	63.838	20.906	69.631	0.081	182	8.088	0	0	0.44	00.074	-0.136	0.959	0.668	16.769	62.264	17.688	63.838	20.906	69.631	0.082	179	8.088	0	0	0.492	00.07	-0.136	0.944	0.666	16.593	61.789	17.688	63.838	20.906	69.631	0.084	184	8.352	0	0	0.51	00.066	-0.136	0.959	0.667	16.769	62.105	17.688	63.838	20.906	69.631	0.082	183	8.132	0	0	0.457	00.07	-0.132	0.963	0.666	16.505	61.868	17.688	63.838	20.906	69.631	0.084	190	8.352	0	0	0.527	00.074	-0.136	0.963	0.668	16.769	62.026	17.688	63.838	20.906	69.631	0.082	184	8.132	0	0	0.492	00.074	-0.136	0.959	0.669	16.857	62.185	17.688	63.838	20.906	69.631	0.08	181	8.044	0	0	0.51	00.074	-0.136	0.959	0.668	16.725	62.264	17.688	63.838	20.906	69.631	0.082	185	7.78	0	0	0.527	00.078	-0.132	0.956	0.666	16.549	61.868	17.688	63.838	20.906	69.631	0.089	200	8.791	0	0	0.492	00.07	-0.136	0.959	0.669	16.901	62.264	17.688	63.838	20.906	69.631	0.086	193	8.484	0	0	0.44	00.078	-0.132	0.956	0.669	16.681	62.105	17.688	63.838	20.906	69.631	0.08	190	8.396	0	0	0.527	00.062	-0.136	0.963	0.668	16.681	62.105	17.688	63.838	20.906	69.631	0.08	182	8	0	0	0.475	00.066	-0.132	0.956	0.667	16.681	62.105	17.688	63.838	20.906	69.631	0.081	187	8.264	0	0	0.457	00.07	-0.136	0.959	0.668	16.725	62.185	17.688	63.838	20.906	69.631	0.082	183	8.044	0	0	0.457	00.074	-0.136	0.956	0.667	16.637	62.105	17.688	63.838	20.906	69.631	0.078	181	7.912	0	0	0.475	00.07	-0.14	0.959	0.669	16.725	62.105	17.688	63.838	20.906	69.631	0.081	187	8.088	0	0	0.51	00.074	-0.136	-0.039	0.665	16.549	61.868	17.531	63.556	20.906	69.631	0.085	185	8.527	0	0	0.457	00.07	-0.136	0.963	0.664	16.286	61.314	17.531	63.556	20.906	69.631	0.08	185	8.132	0	0	0.51	00.066	-0.136	0.959	0.668	16.725	61.947	17.531	63.556	20.906	69.631	0.08	186	8.044	0	0	0.475	00.07	-0.136	0.959	0.666	16.637	61.947	17.531	63.556	20.906	69.631	0.081	186	8.088	0	0	0.492	00.074	-0.14	0.952	0.666	16.593	61.868	17.531	63.556	20.906	69.631	0.087	192	8.527	0	0	0.598	00.07	-0.132	0.959	0.669	16.813	62.422	17.531	63.556	20.906	69.631	0.085	195	8.527	0	0	0.527	00.074	-0.132	0.963	0.667	16.681	61.947	17.531	63.556	20.906	69.631	0.08	183	8.176	0	0	0.44	00.07	-0.132	0.959	0.669	16.857	62.422	17.531	63.556	20.906	69.631	0.083	186	8.176	0	0	0.492	00.066	-0.128	0.963	0.428	-7.363	18.589	17.531	63.556	20.906	69.631	0.073	163	7.253	0	0	0.07	00.07	-0.132	0.952	0.422	-8.022	17.402	17.531	63.556	20.906	69.631	0.073	162	7.297	0	0	0.141	00.074	-0.136	0.963	0.424	-7.714	18.431	17.531	63.556	20.906	69.631	0.072	166	6.901	0	0	0.176	00.066	-0.124	0.959	0.423	-7.846	17.719	17.531	63.556	20.906	69.631	0.073	175	7.473	0	0	0.105	00.074	-0.136	0.959	0.666	16.505	61.947	17.531	63.556	20.906	69.631	0.08	186	8.264	0	0	0.457	00.07	-0.132	0.959	0.669	16.813	62.343	17.531	63.556	20.906	69.631	0.083	191	8.396	0	0	0.475	00.07	-0.132	0.963	0.322	-18.044	-0.637	17.531	63.556	20.906	69.631	0.072	166	7.341	0	0	-0.07	00.07	-0.132	0.959	0.668	16.813	62.343	17.531	63.556	20.906	69.631	0.083	187	8	0	0	0.51	00.074	-0.136	0.956	0.668	16.901	62.185	17.531	63.556	20.906	69.631	0.083	195	8.44	0	0	0.492	00.07	-0.136	0.959	0.669	16.857	62.422	17.531	63.556	20.906	69.631	0.084	191	8.396	0	0	0.51	00.07	-0.132	0.956	0.668	16.813	62.264	17.531	63.556	20.906	69.631	0.082	187	8.308	0	0	0.51	00.07	-0.136	0.963	0.669	16.725	62.264	17.531	63.556	20.906	69.631	0.084	190	8.352	0	0	0.492	00.074	-0.132	0.963	0.154	-34.571	-30.149	17.531	63.556	20.906	69.631	0.065	144	6.286	0	0	-0.352	00.07	-0.136	0.959	0.669	16.813	62.422	17.531	63.556	20.906	69.631	0.082	188	8.264	0	0	0.51	00.07	-0.132	0.963	0.159	-34.176	-29.516	17.531	63.556	20.906	69.631	0.064	138	6.11	0	0	-0.316	00.07	-0.132	0.963	0.159	-34.176	-29.516	17.531	63.556	20.906	69.631	0.064	138	6.11	0	0	-0.316	00.074	-0.148	0.959	0.668	16.681	61.868	17.531	63.556	20.906	69.631	0.085	198	8.703	0	0	0.545	00.074	-0.136	0.959	0.668	16.813	62.185	17.531	63.556	20.906	69.631	0.084	189	8.484	0	0	0.475	00.074	-0.136	0.959	0.668	16.769	62.185	17.531	63.556	20.906	69.631	0.086	199	8.659	0	0	0.527	00.074	-0.136	0.959	0.669	16.901	62.343	17.531	63.556	20.906	69.631	0.081	184	8	0	0	0.545	00.074	-0.136	0.959	0.669	16.901	62.343	17.531	63.556	20.906	69.631	0.081	184	8	0	0	0.545	00.07	-0.132	0.963	0.666	16.505	61.868	17.531	63.556	20.906	69.631	0.081	190	8.22	0	0	0.475	00.066	-0.14	0.956	0.666	16.593	61.71	17.531	63.556	20.906	69.631	0.083	190	8.308	0	0	0.457	00.066	-0.14	0.956	0.666	16.593	61.71	17.531	63.556	20.906	69.631	0.083	190	8.308	0	0	0.457	00.07	-0.136	0.959	0.668	16.681	62.026	17.531	63.556	20.906	69.631	0.085	197	8.484	0	0	0.492	00.074	-0.132	0.959	0.668	16.769	62.185	17.531	63.556	20.906	69.631	0.083	185	8.264	0	0	0.527	00.07	-0.136	0.959	0.668	16.681	62.185	17.531	63.556	20.906	69.631	0.084	191	8.396	0	0	0.457	00.074	-0.132	0.963	0.667	16.813	62.026	17.531	63.556	20.906	69.631	0.081	186	8.22	0	0	0.51	00.074	-0.132	0.963	0.667	16.813	62.026	17.531	63.556	20.906	69.631	0.081	186	8.22	0	0	0.51	00.074	-0.132	0.963	0.669	16.813	62.105	17.531	63.556	20.906	69.631	0.081	181	7.912	0	0	0.563	00.074	-0.136	0.959	0.667	16.637	62.026	17.531	63.556	20.906	69.631	0.082	185	8.088	0	0	0.475	00.074	-0.136	0.959	0.667	16.637	62.026	17.531	63.556	20.906	69.631	0.082	185	8.088	0	0	0.475	00.074	-0.132	0.956	0.668	16.769	62.026	17.531	63.556	20.906	69.631	0.08	185	7.956	0	0	0.475	00.074	-0.14	0.959	0.666	16.549	61.789	17.531	63.556	20.906	69.631	0.081	188	8.132	0	0	0.492	00.066	-0.136	0.959	0.412	-8.813	16.136	17.531	63.556	20.906	69.631	0.073	168	7.253	0	0	0.07	00.066	-0.136	0.959	0.412	-8.813	16.136	17.531	63.556	20.906	69.631	0.073	168	7.253	0	0	0.07	00.074	-0.136	0.959	0.668	16.725	62.185	17.531	63.556	20.906	69.631	0.084	189	8.571	0	0	0.492	00.074	-0.128	0.959	0.669	16.857	62.185	17.531	63.556	20.938	69.688	0.081	182	8	0	0	0.51	00.07	-0.136	0.959	0.667	16.681	61.947	17.531	63.556	20.938	69.688	0.082	186	8.088	0	0	0.527	00.07	-0.136	0.959	0.667	16.681	61.947	17.531	63.556	20.938	69.688	0.082	186	8.088	0	0	0.527	00.074	-0.132	0.963	0.668	16.769	62.105	17.531	63.556	20.938	69.688	0.083	189	8.22	0	0	0.475	00.078	-0.136	0.959	0.431	-7.231	19.222	17.531	63.556	20.938	69.688	0.07	161	7.165	0	0	0.088	00.078	-0.136	0.959	0.431	-7.231	19.222	17.531	63.556	20.938	69.688	0.07	161	7.165	0	0	0.088	00.07	-0.136	0.959	0.665	16.462	61.552	17.188	62.938	20.938	69.688	0.081	181	8.044	0	0	0.563	00.07	-0.136	0.963	0.667	16.681	61.947	17.188	62.938	20.938	69.688	0.081	186	8.088	0	0	0.422	00.07	-0.136	0.959	0.669	16.725	62.264	17.188	62.938	20.938	69.688	0.082	184	8.176	0	0	0.457	00.07	-0.136	0.959	0.669	16.945	62.264	17.188	62.938	20.938	69.688	0.081	187	8.352	0	0	0.51	00.07	-0.136	0.959	0.376	-12.505	9.332	17.188	62.938	20.938	69.688	0.086	190	8.308	0	0	0.316	00.07	-0.136	0.959	0.375	-12.725	8.936	17.188	62.938	20.938	69.688	0.072	166	7.121	0	0	-0.035	00.066	-0.136	0.959	0.376	-12.418	9.648	17.188	62.938	20.938	69.688	0.069	163	7.165	0	0	-0.123	00.074	-0.132	0.963	0.377	-12.549	9.648	17.188	62.938	20.938	69.688	0.071	158	7.209	0	0	0.053	00.078	-0.128	0.963	0.669	16.813	62.105	17.188	62.938	20.938	69.688	0.081	187	8.22	0	0	0.457	00.07	-0.132	0.959	0.238	-26.264	-15.196	17.188	62.938	20.938	69.688	0.068	150	7.033	0	0	-0.123	00.07	-0.136	0.959	0.241	-26.088	-15.116	17.188	62.938	20.938	69.688	0.073	160	7.297	0	0	-0.316	00.066	-0.132	0.956	0.668	16.857	62.264	17.188	62.938	20.938	69.688	0.082	189	8.22	0	0	0.51	00.074	-0.136	0.956	0.667	16.593	61.789	17.188	62.938	20.938	69.688	0.08	186	8.132	0	0	0.492	00.07	-0.132	0.959	0.669	16.901	62.343	17.188	62.938	20.938	69.688	0.073	169	7.429	0	0	0.457	00.07	-0.136	0.959	0.667	16.681	61.947	17.188	62.938	20.938	69.688	0.072	161	7.121	0	0	0.545	00.074	-0.136	0.959	0.189	-31.275	-24.057	17.188	62.938	20.938	69.688	0.058	126	5.451	0	0	-0.299	00.066	-0.132	0.963	0.193	-30.703	-23.266	17.188	62.938	20.938	69.688	0.058	137	5.978	0	0	-0.299	00.07	-0.128	0.963	0.19	-31.055	-23.662	17.188	62.938	20.938	69.688	0.064	141	6.286	0	0	-0.316	00.074	-0.136	0.959	0.196	-30.527	-23.266	17.188	62.938	20.938	69.688	0.07	161	6.945	0	0	-0.264	00.074	-0.136	0.963	0.19	-31.099	-23.662	17.188	62.938	20.938	69.688	0.067	148	6.813	0	0	-0.316	00.074	-0.136	0.959	0.666	16.637	61.71	17.188	62.938	20.938	69.688	0.082	186	8.132	0	0	0.457	00.074	-0.136	0.959	0.668	16.725	62.343	17.188	62.938	20.938	69.688	0.08	181	7.824	0	0	0.527	00.074	-0.136	0.959	0.668	16.725	62.343	17.188	62.938	20.938	69.688	0.08	181	7.824	0	0	0.527	00.074	-0.136	0.959	0.668	16.725	62.343	17.188	62.938	20.938	69.688	0.08	181	7.824	0	0	0.527	00.07	-0.132	0.959	0.163	-33.824	-28.725	17.188	62.938	20.938	69.688	0.084	187	8.132	0	0	-0.352	00.07	-0.136	0.959	0.669	16.813	62.185	17.188	62.938	20.938	69.688	0.094	215	9.407	0	0	0.475	00.07	-0.136	0.959	0.669	16.813	62.185	17.188	62.938	20.938	69.688	0.094	215	9.407	0	0	0.475	00.07	-0.132	0.959	0.405	-9.736	14.396	17.188	62.938	20.938	69.688	0.075	171	7.429	0	0	0.035	00.074	-0.128	0.959	0.666	16.505	61.71	17.188	62.938	20.938	69.688	0.086	201	8.659	0	0	0.545	00.07	-0.136	0.959	0.668	16.593	61.868	17.188	62.938	20.938	69.688	0.075	173	7.56	0	0	0.475	00.078	-0.136	0.959	0.668	16.681	62.026	17.188	62.938	20.938	69.688	0.075	170	7.429	0	0	0.457	00.066	-0.128	0.959	0.668	16.769	62.105	17.188	62.938	20.938	69.688	0.077	176	7.648	0	0	0.51	00.07	-0.136	0.959	0.666	16.549	61.789	17.188	62.938	20.938	69.688	0.076	174	7.429	0	0	0.51	00.074	-0.136	0.959	0.26	-24.242	-11.635	17.188	62.938	20.938	69.688	0.065	151	6.681	0	0	-0.264	00.074	-0.132	-0.035	0.268	-23.582	-10.607	17.188	62.938	20.938	69.688	0.068	156	6.681	0	0	-0.141	00.07	-0.136	0.963	0.266	-23.538	-10.448	17.188	62.938	20.938	69.688	0.066	147	6.505	0	0	-0.211	00.078	-0.136	0.963	0.262	-24.022	-11.556	17.188	62.938	20.938	69.688	0.065	145	6.462	0	0	-0.123	00.074	-0.136	0.959	0.669	16.769	62.105	17.188	62.938	20.938	69.688	0.077	184	7.868	0	0	0.44	00.074	-0.14	0.959	0.314	-18.835	-2.062	17.188	62.938	20.938	69.688	0.069	153	6.857	0	0	-0.035	00.07	-0.136	0.959	0.665	16.418	61.552	17.188	62.938	20.938	69.688	0.081	183	8.176	0	0	0.51	00.074	-0.132	0.963	0.311	-19.055	-2.22	17.188	62.938	20.938	69.688	0.068	153	6.857	0	0	-0.123	00.074	-0.132	0.963	0.311	-19.055	-2.22	17.188	62.938	20.938	69.688	0.068	153	6.857	0	0	-0.123	00.074	-0.132	0.952	0.312	-18.791	-1.824	17.188	62.938	20.938	69.688	0.084	187	8.132	0	0	-0.123	00.074	-0.132	0.952	0.312	-18.791	-1.824	17.188	62.938	20.938	69.688	0.084	187	8.132	0	0	-0.123	00.074	-0.132	0.952	0.312	-18.791	-1.824	17.188	62.938	20.938	69.688	0.084	187	8.132	0	0	-0.123	00.07	-0.136	0.959	0.668	16.725	62.105	17.188	62.938	20.938	69.688	0.091	209	9.143	0	0	0.527	00.066	-0.128	0.963	0.668	16.813	62.185	17.188	62.938	20.938	69.688	0.091	207	9.099	0	0	0.492	00.074	-0.136	0.959	0.662	16.374	61.789	17.188	62.938	20.938	69.688	0.096	215	9.495	0	0	0.545	00.363	-0.14	0.959	0.668	16.725	62.105	17.188	62.938	20.938	69.688	0.117	262	11.692	0	0	0.563	00.113	-0.128	0.959	0.666	16.637	61.947	17.188	62.938	20.938	69.688	0.11	246	10.901	1	4	0.475	00.078	-0.132	0.956	0.197	-30.352	-22.633	17.188	62.938	20.938	69.688	0.079	178	7.824	1	4	-0.211	00.097	-0.124	0.959	0.196	-30.44	-22.949	17.281	63.106	20.938	69.688	0.072	159	6.945	1	4	-0.229	00.07	-0.136	0.959	0.668	16.725	62.185	17.281	63.106	20.938	69.688	0.089	203	9.055	1	4	0.492	00.074	-0.132	0.959	0.67	16.989	62.422	17.281	63.106	20.938	69.688	0.091	205	9.055	1	4	0.475	00.07	-0.132	0.959	0.669	16.857	62.422	17.281	63.106	20.938	69.688	0.092	211	9.055	1	4	0.51	00.078	-0.14	0.959	0.668	16.857	62.185	17.281	63.106	20.938	69.688	0.082	185	8.176	1	4	0.527	00.066	-0.132	0.959	0.668	16.769	62.264	17.281	63.106	20.938	69.688	0.082	190	8.352	1	4	0.51	00.086	-0.121	0.959	0.669	16.857	62.343	17.281	63.106	20.938	69.688	0.087	195	8.747	1	4	0.527	00.074	-0.136	0.963	0.669	16.813	62.264	17.281	63.106	20.938	69.688	0.086	194	8.527	1	4	0.457	00.074	-0.128	0.959	0.667	16.681	62.105	17.281	63.106	20.938	69.688	0.092	207	9.407	1	4	0.492	00.074	-0.136	0.959	0.669	16.857	62.343	17.281	63.106	20.938	69.688	0.087	195	8.571	1	4	0.51	00.066	-0.14	0.944	0.667	16.681	62.105	17.281	63.106	20.938	69.688	0.08	183	8	1	4	0.51	00.074	-0.136	0.959	0.669	16.989	62.58	17.281	63.106	20.938	69.688	0.08	181	7.912	1	4	0.457	00.066	-0.136	0.967	0.669	16.813	62.264	17.281	63.106	20.938	69.688	0.095	218	9.538	1	4	0.475	00.074	-0.136	0.959	0.667	16.681	61.868	17.281	63.106	20.938	69.688	0.094	214	9.538	1	4	0.492	00.055	-0.152	0.963	0.667	16.681	62.026	17.281	63.106	20.938	69.688	0.091	204	9.231	1	4	0.475	00.105	-0.113	0.959	0.669	16.857	62.422	17.281	63.106	20.938	69.688	0.092	210	9.055	1	4	0.475	00.07	-0.14	0.963	0.666	15.802	61.393	17.281	63.106	20.938	69.688	0.088	199	8.571	1	4	0.369	00.074	-0.136	0.956	0.669	16.813	62.343	17.281	63.106	20.938	69.688	0.093	194	8.44	1	4	0.545	00.074	-0.128	0.952	0.668	16.769	62.264	17.281	63.106	20.938	69.688	0.095	213	9.495	1	4	0.545	00.07	-0.132	0.959	0.222	-27.846	-18.123	17.281	63.106	20.938	69.688	0.067	157	6.989	1	4	-0.264	00.074	-0.136	0.959	0.225	-27.495	-17.332	17.281	63.106	20.938	69.688	0.068	155	6.901	1	4	-0.299	00.078	-0.132	0.959	0.67	16.813	62.185	17.281	63.106	20.938	69.688	0.09	209	9.099	1	4	0.492	00.074	-0.132	0.959	0.442	-5.956	21.279	17.281	63.106	20.938	69.688	0.083	184	8.176	1	4	0.176	00.074	-0.128	0.956	0.443	-5.736	21.833	17.281	63.106	20.938	69.688	0.084	190	8.44	1	4	0.088	00.07	-0.136	0.959	0.443	-5.868	21.279	17.281	63.106	20.938	69.688	0.076	176	7.692	1	4	0.176	00.07	-0.132	0.963	0.44	-6.176	20.33	17.281	63.106	20.938	69.688	0.073	168	7.253	1	4	0.105	00.07	-0.14	0.959	0.44	-6.308	20.33	17.281	63.106	20.938	69.688	0.062	142	6.242	1	4	0.176	00.07	-0.136	0.959	0.667	16.637	62.105	17.281	63.106	20.938	69.688	0.068	153	6.769	1	4	0.44	00.07	-0.132	0.959	0.347	-15.319	4.585	17.281	63.106	20.938	69.688	0.059	137	5.978	1	4	-0.07	00.07	-0.136	0.959	0.668	16.769	62.105	17.281	63.106	20.938	69.688	0.072	166	7.297	1	4	0.457	00.078	-0.136	0.956	0.669	16.769	62.105	17.281	63.106	20.938	69.688	0.071	163	6.989	1	4	0.492	00.074	-0.136	0.963	0.668	16.637	61.947	17.281	63.106	20.938	69.688	0.07	166	7.121	1	4	0.492	00.074	-0.136	0.959	0.666	16.505	61.71	17.281	63.106	20.938	69.688	0.072	163	7.385	1	4	0.457	00.07	-0.136	0.959	0.326	-17.473	0.708	17.281	63.106	20.938	69.688	0.072	160	7.077	1	4	-0.053	00.066	-0.132	0.959	0.328	-17.297	0.866	17.281	63.106	20.938	69.688	0.074	170	7.385	1	4	-0.035	00.07	-0.136	0.956	0.329	-17.253	1.103	17.281	63.106	20.938	69.688	0.068	156	6.813	1	4	-0.088	00.074	-0.132	0.959	0.666	16.593	61.71	17.281	63.106	20.938	69.688	0.076	174	7.824	1	4	0.492	00.07	-0.136	0.956	0.333	-16.901	1.341	17.281	63.106	20.938	69.688	0.059	138	5.934	1	4	0.105	00.074	-0.14	0.959	0.666	16.549	61.789	17.281	63.106	20.938	69.688	0.073	172	7.341	1	4	0.545	00.07	-0.132	0.959	0.668	16.813	62.343	17.281	63.106	20.938	69.688	0.071	158	7.209	1	4	0.527	00.078	-0.132	0.959	0.247	-25.253	-13.376	17.281	63.106	20.938	69.688	0.058	128	5.582	1	4	-0.158	00.074	-0.136	0.956	0.668	16.725	62.026	17.281	63.106	20.938	69.688	0.075	170	7.341	1	4	0.58	00.066	-0.136	0.952	0.669	16.725	62.185	17.281	63.106	20.938	69.688	0.075	173	7.516	1	4	0.475	00.07	-0.14	0.959	0.667	16.593	61.71	17.281	63.106	20.938	69.688	0.07	161	7.121	1	4	0.44	00.07	-0.136	0.956	0.666	16.593	61.789	17.281	63.106	20.938	69.688	0.069	160	6.945	1	4	0.457	00.074	-0.132	0.959	0.479	-14.659	-4.198	17.281	63.106	20.906	69.631	0.055	124	5.231	1	4	-0.158	00.074	-0.136	0.952	0.267	-23.451	-10.132	17.281	63.106	20.906	69.631	0.058	127	5.714	1	4	-0.123	00.066	-0.136	0.959	0.666	16.549	61.71	17.281	63.106	20.906	69.631	0.072	163	7.165	1	4	0.475	00.07	-0.132	0.963	0.666	16.549	61.552	17.281	63.106	20.906	69.631	0.073	161	7.209	1	4	0.457	00.074	-0.136	0.959	0.667	16.725	62.185	17.281	63.106	20.906	69.631	0.069	158	6.989	1	4	0.475	00.07	-0.136	0.956	0.667	16.637	62.026	18.969	66.144	20.906	69.631	0.069	159	7.165	1	4	0.492	00.074	-0.136	0.959	0.666	16.549	61.631	18.969	66.144	20.906	69.631	0.073	161	7.253	1	4	0.457	00.062	-0.144	0.959	0.302	-20.198	-4.514	18.969	66.144	20.906	69.631	0.059	125	5.626	1	4	-0.123	00.07	-0.136	0.959	0.669	16.857	62.264	18.969	66.144	20.906	69.631	0.074	168	7.604	1	4	0.492	00.07	-0.136	0.959	0.669	16.945	62.264	18.969	66.144	20.906	69.631	0.07	161	7.209	1	4	0.492	00.074	-0.136	0.956	0.669	16.857	62.264	18.969	66.144	20.906	69.631	0.073	161	7.209	1	4	0.51	00.074	-0.136	0.963	0.668	16.637	61.947	18.969	66.144	20.906	69.631	0.069	154	7.077	1	4	0.475	00.078	-0.136	0.959	0.668	16.769	62.105	18.969	66.144	20.906	69.631	0.084	188	8.352	1	4	0.492	00.074	-0.136	0.959	0.668	16.813	62.026	18.969	66.144	20.906	69.631	0.087	197	8.747	1	4	0.475	00.07	-0.132	0.959	0.668	16.857	62.422	18.969	66.144	20.906	69.631	0.083	188	8.352	1	4	0.51	00.074	-0.14	0.959	0.668	16.593	61.947	18.969	66.144	20.906	69.631	0.082	191	8.352	1	4	0.492	00.066	-0.136	0.936	0.669	16.769	62.264	18.969	66.144	20.906	69.631	0.082	185	8.22	1	4	0.475	00.07	-0.136	0.956	0.666	16.593	61.947	18.969	66.144	20.906	69.631	0.081	186	8.132	1	4	0.492	00.066	-0.132	0.956	0.198	-30.352	-22.87	18.969	66.144	20.906	69.631	0.066	146	6.462	1	4	-0.176	00.066	-0.132	0.956	0.669	16.813	62.185	18.969	66.144	20.906	69.631	0.09	207	9.143	1	4	0.457	00.074	-0.136	0.956	0.665	16.549	61.789	18.969	66.144	20.906	69.631	0.091	204	9.055	1	4	0.457	00.074	-0.136	0.956	0.665	16.549	61.789	18.969	66.144	20.906	69.631	0.091	204	9.055	1	4	0.457	00.078	-0.14	0.956	0.666	16.593	61.868	18.969	66.144	20.906	69.631	0.079	186	7.956	1	4	0.492	00.07	-0.136	0.959	0.387	-11.407	11.31	18.969	66.144	20.906	69.631	0.067	156	6.945	1	4	0.035	00.074	-0.136	0.959	0.389	-11.407	11.31	18.969	66.144	20.906	69.631	0.07	163	6.945	1	4	0.07	00.07	-0.132	-0.039	0.389	-11.407	11.389	18.969	66.144	20.906	69.631	0.07	158	6.989	1	4	0.07	00.074	-0.136	0.956	0.666	16.637	62.026	18.969	66.144	20.906	69.631	0.087	195	8.484	1	4	0.44	00.074	-0.136	0.956	0.666	16.637	62.026	18.969	66.144	20.906	69.631	0.087	195	8.484	1	4	0.44	00.074	-0.136	0.956	0.389	-11.143	11.626	18.969	66.144	20.906	69.631	0.082	187	8.176	1	4	0.035	00.074	-0.132	0.948	0.67	16.901	62.343	18.969	66.144	20.906	69.631	0.09	202	8.967	0	0	0.457	00.07	-0.132	0.956	0.669	16.945	62.343	18.969	66.144	20.906	69.631	0.085	193	8.527	0	0	0.527	00.074	-0.136	0.959	0.669	16.945	62.264	18.969	66.144	20.906	69.631	0.079	182	7.868	0	0	0.492	00.074	-0.136	0.959	0.295	-20.681	-5.305	18.969	66.144	20.906	69.631	0.064	147	6.681	0	0	-0.088	00.066	-0.128	0.959	0.295	-20.681	-5.226	18.969	66.144	20.906	69.631	0.069	149	6.681	0	0	-0.141	00.066	-0.128	0.959	0.295	-20.681	-5.226	18.969	66.144	20.906	69.631	0.069	149	6.681	0	0	-0.141	00.07	-0.132	0.952	0.175	-32.549	-26.668	18.969	66.144	20.906	69.631	0.064	146	6.242	0	0	-0.387	00.07	-0.132	0.952	0.175	-32.549	-26.668	18.969	66.144	20.906	69.631	0.064	146	6.242	0	0	-0.387	00.07	-0.136	0.959	0.176	-32.505	-26.589	18.969	66.144	20.906	69.631	0.077	171	7.648	0	0	-0.229	00.07	-0.136	0.959	0.176	-32.505	-26.589	18.969	66.144	20.906	69.631	0.077	171	7.648	0	0	-0.229	00.074	-0.14	0.959	0.178	-32.242	-25.877	18.969	66.144	20.906	69.631	0.068	142	6.505	0	0	-0.316	00.074	-0.136	0.959	0.178	-32.374	-26.51	18.969	66.144	20.906	69.631	0.065	146	6.374	0	0	-0.229	00.07	-0.132	0.959	0.665	16.505	61.71	18.969	66.144	20.906	69.631	0.081	187	8.352	0	0	0.51	00.07	-0.132	0.959	0.668	16.681	62.026	18.969	66.144	20.906	69.631	0.084	189	8.352	0	0	0.527	00.07	-0.136	0.956	0.669	16.813	62.026	18.969	66.144	20.906	69.631	0.078	177	7.824	0	0	0.527	00.07	-0.132	0.959	0.665	16.462	61.552	18.969	66.144	20.906	69.631	0.077	179	7.868	0	0	0.527	00.07	-0.136	0.959	0.667	16.637	61.947	18.969	66.144	20.906	69.631	0.089	202	8.791	0	0	0.404	00.074	-0.132	0.959	0.668	16.637	62.026	18.969	66.144	20.906	69.631	0.082	185	8.088	0	0	0.51	00.078	-0.132	0.959	0.261	-24.11	-11.873	18.969	66.144	20.906	69.631	0.068	156	6.857	0	0	-0.158	00.07	-0.132	0.956	0.666	16.549	61.868	18.969	66.144	20.906	69.631	0.081	184	8	0	0	0.44	00.074	-0.14	0.959	0.257	-24.505	-11.556	18.969	66.144	20.906	69.631	0.069	160	6.989	0	0	-0.264	00.074	-0.14	0.959	0.257	-24.505	-11.556	18.969	66.144	20.906	69.631	0.069	160	6.989	0	0	-0.264	00.07	-0.132	0.959	0.26	-24.11	-11.398	18.969	66.144	20.844	69.519	0.065	154	6.593	0	0	-0.229	00.07	-0.132	0.959	0.26	-24.11	-11.398	18.969	66.144	20.844	69.519	0.065	154	6.593	0	0	-0.229	00.07	-0.136	0.959	0.668	16.725	61.947	18.969	66.144	20.844	69.519	0.08	183	7.956	0	0	0.492	00.074	-0.136	0.959	0.665	16.637	61.868	18.969	66.144	20.844	69.519	0.081	185	8.264	0	0	0.457	00.066	-0.136	-0.039	0.358	-14.264	6.246	18.969	66.144	20.844	69.519	0.072	162	6.989	0	0	-0.035	00.074	-0.136	0.959	0.36	-14.22	6.484	20.312	68.562	20.844	69.519	0.075	165	7.429	0	0	-0.088	00.074	-0.132	0.956	0.668	16.857	62.343	20.312	68.562	20.844	69.519	0.082	182	8.22	0	0	0.492	00.07	-0.136	0.959	0.276	-22.527	-8.787	20.312	68.562	20.844	69.519	0.064	147	6.418	0	0	-0.229	00.07	-0.136	-0.039	0.277	-22.571	-8.708	20.312	68.562	20.844	69.519	0.065	150	6.418	0	0	-0.158	00.066	-0.136	0.959	0.669	16.901	62.422	20.312	68.562	20.844	69.519	0.082	185	8.22	0	0	0.51	00.07	-0.14	0.959	0.669	16.857	62.264	20.312	68.562	20.844	69.519	0.08	181	7.868	0	0	0.422	00.07	-0.136	0.959	0.668	16.769	62.185	20.312	68.562	20.844	69.519	0.078	181	7.868	0	0	0.457	00.07	-0.136	0.956	0.669	16.857	62.343	20.312	68.562	20.844	69.519	0.08	182	8	