Accel_X,Accel_Y,Accel_Z,Cont_TempV,Cont_TempDegC,Cont_TempDegF,IF_Temp_ObjDegC,IF_Temp_ObjDegF,IF_Temp_LocDegC,IF_Temp_LocDegF,SoundV,SoundRaw,SoundScl,RPM_Hz,RPM,Current
0.058,-0.132,0.952,0.628,12.593,54.668,16.406,61.531,0,0,0.076,172,7.56,1,4,0.422
0.055,-0.136,0.948,0.626,12.505,54.668,16.406,61.531,15.438,59.787,0.085,193,8.396,1,4,0.457
0.055,-0.14,0.948,0.626,12.593,54.589,16.406,61.531,15.438,59.787,0.085,187,8.352,1,4,0.369
0.055,-0.136,0.956,0.626,12.593,54.589,16.406,61.531,15.438,59.787,0.079,180,7.78,1,4,0.457
0.055,-0.136,0.956,0.626,12.593,54.589,16.406,61.531,15.438,59.787,0.079,180,7.78,1,4,0.457
0.062,-0.144,0.956,0.511,0.989,33.78,16.406,61.531,15.438,59.787,0.073,168,7.429,1,4,0.158
0.062,-0.144,0.956,0.511,0.989,33.78,16.406,61.531,15.438,59.787,0.073,168,7.429,1,4,0.158
0.058,-0.14,0.948,0.626,12.549,54.51,16.406,61.531,15.438,59.787,0.077,174,7.736,1,4,0.492
0.062,-0.14,0.959,0.627,12.593,54.668,16.406,61.531,15.438,59.787,0.082,180,7.912,1,4,0.369
0.058,-0.144,0.956,0.627,12.637,54.747,16.406,61.531,15.438,59.787,0.091,206,9.143,1,4,0.492
0.058,-0.144,0.956,0.627,12.637,54.747,16.406,61.531,15.438,59.787,0.091,206,9.143,1,4,0.492
0.055,-0.14,0.959,0.437,-6.264,20.567,16.406,61.531,15.438,59.787,0.069,152,6.813,1,4,0.158
0.058,-0.144,0.952,0.416,-8.462,16.532,16.406,61.531,15.438,59.787,0.08,177,7.604,1,4,0.211
0.058,-0.14,0.959,0.396,-10.44,13.13,16.406,61.531,15.438,59.787,0.068,151,6.549,1,4,0.088
0.058,-0.14,0.959,0.396,-10.44,13.13,16.406,61.531,15.438,59.787,0.068,151,6.549,1,4,0.088
0.058,-0.136,0.948,0.349,-15.187,4.426,16.406,61.531,15.438,59.787,0.069,154,6.857,1,4,0.035
0.058,-0.14,0.956,0.625,12.418,54.431,16.406,61.531,15.438,59.787,0.079,176,7.604,1,4,0.44
0.058,-0.14,0.956,0.143,-35.67,-32.286,16.406,61.531,15.438,59.787,0.068,151,6.505,1,4,-0.316
0.058,-0.14,0.952,0.128,-37.165,-34.897,16.406,61.531,15.438,59.787,0.067,146,6.33,1,4,-0.369
0.058,-0.14,0.956,0.116,-38.484,-37.666,16.406,61.531,15.438,59.787,0.056,131,5.802,1,4,-0.44
0.055,-0.14,0.956,0.109,-39.099,-38.536,16.406,61.531,15.438,59.787,0.055,128,5.582,1,4,-0.457
0.062,-0.144,0.944,0.102,-39.89,-39.96,16.406,61.531,15.438,59.787,0.061,140,6.022,1,4,-0.44
0.051,-0.136,-0.039,0.622,12.198,53.877,16.406,61.531,15.438,59.787,0.085,188,8.22,1,4,0.369
0.062,-0.14,0.952,0.091,-40.945,-41.859,16.406,61.531,15.438,59.787,0.059,130,5.846,1,4,-0.475
0.058,-0.144,0.959,0.623,12.066,53.64,16.406,61.531,15.438,59.787,0.087,194,8.659,1,4,0.387
0.062,-0.14,0.956,0.622,12.066,53.719,16.406,61.531,15.438,59.787,0.075,167,7.385,1,4,0.457
0.058,-0.144,0.952,0.622,12.154,53.877,16.406,61.531,15.438,59.787,0.073,176,7.473,1,4,0.44
0.058,-0.14,0.956,0.621,12.022,53.56,16.406,61.531,15.438,59.787,0.082,181,8.176,1,4,0.422
0.062,-0.136,0.952,0.151,-35.187,-31.415,16.406,61.531,15.438,59.787,0.06,137,5.626,1,4,-0.211
0.058,-0.14,0.959,0.135,-36.593,-34.026,16.406,61.531,15.438,59.787,0.075,169,7.56,1,4,-0.281
0.055,-0.136,0.952,0.1,-39.978,-39.96,16.406,61.531,15.438,59.787,0.067,157,6.945,1,4,-0.457
0.055,-0.14,0.963,0.116,-38.615,-38.141,16.406,61.531,15.438,59.787,0.056,128,5.67,1,4,-0.387
0.058,-0.14,0.956,0.122,-37.912,-36.242,16.406,61.531,15.438,59.787,0.058,135,5.714,1,4,-0.334
0.058,-0.14,0.948,0.625,12.505,54.51,16.406,61.531,15.438,59.787,0.085,197,8.659,1,4,0.422
0.058,-0.14,0.959,0.236,-26.703,-15.908,16.406,61.531,15.438,59.787,0.065,144,6.418,1,4,-0.264
0.058,-0.14,0.956,0.239,-26.352,-15.749,16.406,61.531,15.438,59.787,0.065,148,6.418,1,4,-0.246
0.055,-0.144,0.956,0.222,-28.154,-18.993,16.406,61.531,15.438,59.787,0.058,138,5.802,1,4,-0.141
0.058,-0.14,0.956,0.209,-29.56,-21.446,16.406,61.531,15.438,59.787,0.07,163,7.121,1,4,-0.299
0.062,-0.14,0.959,0.208,-29.56,-21.525,16.406,61.531,15.438,59.787,0.069,152,6.637,1,4,-0.193
0.058,-0.14,0.959,0.622,12.154,53.64,16.406,61.531,15.438,59.787,0.08,186,8.088,1,4,0.457
0.055,-0.136,0.952,0.168,-33.429,-28.171,16.406,61.531,15.438,59.787,0.065,146,6.549,1,4,-0.281
0.058,-0.132,0.952,0.622,12.154,53.798,16.406,61.531,15.438,59.787,0.089,200,8.659,1,4,0.475
0.058,-0.14,0.956,0.214,-28.725,-19.864,17.25,63.05,15.438,59.787,0.066,156,6.549,1,4,-0.193
0.058,-0.144,0.952,0.227,-27.538,-17.411,17.25,63.05,15.438,59.787,0.07,166,7.077,1,4,-0.158
0.055,-0.14,0.956,0.236,-26.659,-15.908,17.25,63.05,15.438,59.787,0.074,165,7.033,1,4,-0.088
0.058,-0.14,0.956,0.622,12.11,53.877,17.25,63.05,15.438,59.787,0.078,183,7.912,1,4,0.404
0.055,-0.14,0.94,0.268,-23.275,-9.657,17.25,63.05,15.438,59.787,0.065,148,6.505,1,4,-0.123
0.062,-0.144,0.959,0.623,12.198,53.877,17.25,63.05,15.438,59.787,0.084,187,8.308,1,4,0.475
0.058,-0.14,0.956,0.626,12.637,54.668,17.25,63.05,15.438,59.787,0.084,192,8.44,1,4,0.44
0.062,-0.128,0.952,0.627,12.505,54.668,17.25,63.05,15.438,59.787,0.079,182,7.78,1,4,0.404
0.058,-0.14,0.952,0.625,12.505,54.431,17.25,63.05,15.438,59.787,0.076,180,7.78,1,4,0.51
0.055,-0.14,0.952,0.625,12.462,54.431,17.25,63.05,15.438,59.787,0.082,185,8.22,1,4,0.492
0.058,-0.14,0.959,0.626,12.505,54.589,17.25,63.05,15.438,59.787,0.075,170,7.648,1,4,0.457
0.058,-0.136,0.956,0.24,-25.912,-14.404,17.25,63.05,15.438,59.787,0.063,143,6.286,1,4,-0.211
0.058,-0.14,0.952,0.627,12.681,54.668,17.25,63.05,15.438,59.787,0.085,194,8.396,1,4,0.422
0.058,-0.14,0.956,0.235,-26.703,-16.145,17.25,63.05,15.438,59.787,0.069,156,6.945,5,21,-0.299
0.058,-0.144,0.952,0.626,12.549,54.589,17.25,63.05,15.438,59.787,0.082,186,8.132,5,21,0.475
0.055,-0.136,0.959,0.21,-29.033,-20.259,17.25,63.05,15.438,59.787,0.061,145,6.242,5,21,-0.299
0.051,-0.136,0.956,0.208,-29.253,-20.655,17.25,63.05,15.438,59.787,0.064,142,6.242,5,21,-0.246
0.058,-0.136,0.963,0.627,12.725,54.668,17.25,63.05,15.438,59.787,0.083,188,8.352,5,21,0.527
0.062,-0.14,0.959,0.626,12.593,54.589,17.25,63.05,15.438,59.787,0.074,169,7.429,5,21,0.475
0.058,-0.14,0.956,0.627,12.637,54.747,17.25,63.05,15.438,59.787,0.081,185,8.176,5,21,0.44
0.058,-0.14,0.959,0.627,12.637,54.668,17.25,63.05,15.438,59.787,0.08,184,7.912,5,21,0.475
0.055,-0.14,0.956,0.626,12.593,54.51,17.25,63.05,15.438,59.787,0.089,206,8.923,5,21,0.475
0.062,-0.14,0.959,0.186,-31.626,-24.927,17.25,63.05,15.438,59.787,0.066,149,6.681,5,21,-0.281
0.062,-0.14,0.959,0.627,12.681,54.747,17.25,63.05,15.438,59.787,0.076,176,7.78,5,21,0.44
0.062,-0.136,0.956,0.625,12.505,54.431,17.25,63.05,15.438,59.787,0.076,174,7.604,5,21,0.475
0.062,-0.136,0.956,0.625,12.505,54.431,17.25,63.05,15.438,59.787,0.076,174,7.604,5,21,0.475
0.058,-0.14,0.959,0.627,12.593,54.51,17.25,63.05,15.438,59.787,0.085,190,8.659,5,21,0.44
0.055,-0.14,0.948,0.084,-42.396,-44.708,17.25,63.05,15.438,59.787,0.061,137,6.066,5,21,-0.492
0.062,-0.14,0.944,0.076,-43.143,-45.974,17.25,63.05,15.438,59.787,0.064,140,5.978,5,21,-0.457
0.058,-0.136,0.956,0.052,-45.209,-49.692,17.25,63.05,15.438,59.787,0.062,140,6.154,5,21,-0.563
0.058,-0.14,0.959,0.053,-45.209,-49.93,17.25,63.05,15.438,59.787,0.06,138,6.154,5,21,-0.545
0.058,-0.14,0.952,0.05,-45.736,-50.404,17.25,63.05,15.438,59.787,0.057,130,6.066,5,21,-0.492
0.058,-0.144,0.952,0.622,12.066,53.481,17.25,63.05,15.438,59.787,0.081,189,8.44,5,21,0.404
0.055,-0.14,0.952,0.621,12.154,53.798,17.25,63.05,15.438,59.787,0.085,193,8.527,5,21,0.387
0.058,-0.136,-0.039,0.073,-43.011,-45.657,17.25,63.05,15.438,59.787,0.063,140,6.33,5,21,-0.492
0.055,-0.136,0.956,0.621,12.066,53.719,17.25,63.05,15.438,59.787,0.076,173,7.56,5,21,0.492
0.055,-0.144,0.956,0.622,12.066,53.64,17.25,63.05,15.438,59.787,0.079,182,8.132,5,21,0.334
0.055,-0.14,0.956,0.625,12.549,54.431,17.25,63.05,15.438,59.787,0.077,177,7.56,5,21,0.352
0.058,-0.14,0.952,0.626,12.637,54.826,17.25,63.05,15.438,59.787,0.088,197,8.703,5,21,0.457
0.058,-0.14,0.956,0.626,12.593,54.668,17.25,63.05,15.438,59.787,0.075,171,7.56,5,21,0.492
0.055,-0.14,0.959,0.046,-46.527,-52.066,17.25,63.05,15.438,59.787,0.066,141,6.374,5,21,-0.545
0.058,-0.14,0.952,0.038,-46.615,-51.908,17.25,63.05,15.438,59.787,0.058,130,5.538,5,21,-0.58
0.058,-0.14,0.952,0.038,-46.615,-51.908,17.25,63.05,15.438,59.787,0.058,130,5.538,5,21,-0.58
0.058,-0.14,0.952,0.042,-46.659,-52.303,17.25,63.05,15.438,59.787,0.056,128,5.582,5,21,-0.457
0.058,-0.14,0.956,0.035,-46.879,-52.462,17.25,63.05,15.438,59.787,0.059,137,5.89,5,21,-0.475
0.058,-0.144,0.952,0.564,10.44,53.323,17.25,63.05,15.406,59.731,0.076,173,7.56,5,21,0.369
0.051,-0.14,0.956,0.02,-48.11,-54.598,17.25,63.05,15.406,59.731,0.059,133,5.846,5,21,-0.475
0.058,-0.136,0.959,0.018,-48.33,-54.835,17.25,63.05,15.406,59.731,0.056,127,5.67,5,21,-0.563
0.051,-0.136,0.959,0.016,-48.374,-55.152,17.25,63.05,15.406,59.731,0.059,135,6.022,5,21,-0.475
0.051,-0.14,0.952,0.622,12.11,53.877,17.25,63.05,15.406,59.731,0.083,189,8.352,5,21,0.475
0.062,-0.14,0.952,0.011,-48.813,-55.785,17.812,64.062,15.406,59.731,0.058,135,5.758,5,21,-0.563
0.058,-0.14,0.952,0.009,-49.077,-56.418,17.812,64.062,15.406,59.731,0.053,128,5.538,5,21,-0.492
0.058,-0.14,0.948,0.011,-49.033,-56.338,17.812,64.062,15.406,59.731,0.063,142,6.242,5,21,-0.545
0.055,-0.14,0.956,0.008,-49.077,-56.259,17.812,64.062,15.406,59.731,0.055,129,5.714,5,21,-0.51
0.058,-0.144,0.952,0.009,-49.033,-56.338,17.812,64.062,15.406,59.731,0.062,145,6.33,5,21,-0.404
0.055,-0.14,0.952,0.011,-49.077,-56.338,17.812,64.062,15.406,59.731,0.058,137,5.626,5,21,-0.422
0.058,-0.14,0.948,0.621,12.11,53.798,17.812,64.062,15.406,59.731,0.078,178,7.956,5,21,0.352
0.055,-0.136,0.952,0.013,-48.769,-55.864,17.812,64.062,15.406,59.731,0.051,117,5.187,5,21,-0.545
0.058,-0.132,0.956,0.625,12.505,54.51,17.812,64.062,15.406,59.731,0.084,192,8.396,5,21,0.475
0.058,-0.14,0.956,0.628,12.637,54.668,17.812,64.062,15.406,59.731,0.1,229,10.022,5,21,0.44
0.058,-0.14,0.952,0.626,12.593,54.668,17.812,64.062,15.406,59.731,0.098,226,9.758,5,21,0.44
0.055,-0.136,0.956,0.626,12.462,54.51,17.812,64.062,15.406,59.731,0.09,204,8.835,5,21,0.457
0.058,-0.14,0.956,0.016,-48.549,-55.31,17.812,64.062,15.406,59.731,0.065,148,6.593,5,21,-0.527
0.058,-0.144,0.952,0.625,12.505,54.668,17.812,64.062,15.406,59.731,0.085,190,8.615,5,21,0.422
0.058,-0.144,0.959,0.626,12.593,54.668,17.812,64.062,15.406,59.731,0.088,202,8.791,5,21,0.492
0.058,-0.136,0.956,0.626,12.549,54.668,17.812,64.062,15.406,59.731,0.084,186,8.308,5,21,0.475
0.058,-0.136,0.956,0.626,12.549,54.668,17.812,64.062,15.406,59.731,0.084,186,8.308,5,21,0.475
0.055,-0.136,0.956,0.625,12.549,54.589,17.812,64.062,15.406,59.731,0.084,191,8.352,5,21,0.387
0.058,-0.144,0.956,0.015,-48.549,-55.073,17.812,64.062,15.406,59.731,0.069,155,6.813,5,21,-0.51
0.055,-0.136,0.944,0.628,12.769,54.985,17.812,64.062,15.406,59.731,0.095,214,9.495,5,21,0.457
0.066,-0.136,0.956,0.014,-48.549,-55.547,17.812,64.062,15.406,59.731,0.059,137,6.11,5,21,-0.527
0.058,-0.136,0.952,0.627,12.593,54.51,17.812,64.062,15.406,59.731,0.083,190,8.308,5,21,0.457
0.062,-0.144,0.952,0.626,12.681,54.589,17.812,64.062,15.406,59.731,0.08,178,7.912,6,25,0.44
0.062,-0.136,0.956,0.002,-49.736,-57.604,17.812,64.062,15.406,59.731,0.06,134,6.11,6,25,-0.545
0.055,-0.136,0.944,0.002,-49.78,-57.604,17.812,64.062,15.406,59.731,0.059,135,5.758,6,25,-0.492
0.055,-0.132,0.956,0.627,12.681,54.668,17.812,64.062,15.406,59.731,0.088,204,8.835,6,25,0.44
0.055,-0.132,0.956,0.627,12.681,54.668,17.812,64.062,15.406,59.731,0.088,204,8.835,6,25,0.44
0.055,-0.14,0.952,0.622,12.11,53.956,17.812,64.062,15.406,59.731,0.078,176,7.78,6,25,0.44
0.062,-0.14,0.956,0.623,12.198,53.877,17.812,64.062,15.406,59.731,0.08,183,7.868,6,25,0.51
0.058,-0.136,0.952,0.622,12.242,53.877,17.812,64.062,15.406,59.731,0.084,185,8.22,6,25,0.492
0.062,-0.14,0.94,0.002,-49.824,-57.684,17.812,64.062,15.406,59.731,0.062,139,6.242,6,25,-0.51
0.062,-0.14,0.94,0.002,-49.824,-57.684,17.812,64.062,15.406,59.731,0.062,139,6.242,6,25,-0.51
0.058,-0.144,0.952,0.002,-49.824,-57.684,17.812,64.062,15.406,59.731,0.055,123,5.495,6,25,-0.475
0.058,-0.14,0.956,0.002,-49.78,-57.604,17.812,64.062,15.406,59.731,0.054,129,5.538,6,25,-0.422
0.058,-0.136,0.956,0.002,-49.824,-57.604,17.812,64.062,15.406,59.731,0.066,146,6.462,6,25,-0.457
0.058,-0.14,0.952,0.003,-49.78,-57.604,17.812,64.062,15.406,59.731,0.071,161,7.165,6,25,-0.422
0.055,-0.14,0.956,0.003,-49.736,-57.446,17.812,64.062,15.406,59.731,0.063,137,6.286,6,25,-0.422
0.058,-0.144,0.948,0.627,12.637,54.589,17.812,64.062,15.406,59.731,0.089,202,8.923,6,25,0.492
0.058,-0.136,0.952,0.627,12.549,54.589,17.812,64.062,15.406,59.731,0.081,186,8.044,6,25,0.475
0.058,-0.136,0.94,0.627,12.637,54.747,17.812,64.062,15.406,59.731,0.076,171,7.429,6,25,0.457
0.055,-0.136,0.948,0.627,12.593,54.668,17.812,64.062,15.406,59.731,0.085,192,8.527,6,25,0.422
0.058,-0.14,0.952,0.626,12.549,54.589,17.812,64.062,15.406,59.731,0.08,180,7.78,6,25,0.457
0.055,-0.132,0.956,0.627,12.725,54.747,17.812,64.062,15.406,59.731,0.087,197,8.484,6,25,0.422
0.058,-0.136,0.956,0.627,12.593,54.431,17.812,64.062,15.406,59.731,0.077,179,7.78,6,25,0.475
0.062,-0.14,0.952,0.626,12.549,54.589,17.812,64.062,15.406,59.731,0.081,182,8.088,6,25,0.457
0.058,-0.14,0.956,0.629,12.769,54.747,17.812,64.062,15.406,59.731,0.079,177,7.824,6,25,0.422
0.058,-0.14,0.959,0.627,12.637,54.589,17.812,64.062,15.375,59.675,0.08,178,7.956,6,25,0.44
0.066,-0.14,0.952,0.002,-49.78,-57.684,17.812,64.062,15.375,59.675,0.055,127,5.407,6,25,-0.352
0.058,-0.14,0.92,0.002,-49.78,-57.684,17.812,64.062,15.375,59.675,0.057,136,5.89,6,25,-0.457
0.058,-0.144,0.956,0.002,-49.824,-57.684,17.812,64.062,15.375,59.675,0.056,132,5.758,6,25,-0.492
0.058,-0.136,0.952,0.002,-49.824,-57.604,17.812,64.062,15.375,59.675,0.057,135,6.022,6,25,-0.51
0.058,-0.136,0.956,0.003,-49.736,-57.604,19.312,66.762,15.375,59.675,0.063,142,6.022,6,25,-0.545
0.055,-0.14,0.952,0.624,12.242,54.035,19.312,66.762,15.375,59.675,0.086,195,8.484,6,25,0.422
0.058,-0.136,0.948,0.003,-49.736,-57.446,19.312,66.762,15.375,59.675,0.061,139,6.154,6,25,-0.527
0.055,-0.14,0.956,0.622,12.154,54.035,19.312,66.762,15.375,59.675,0.076,173,7.56,6,25,0.404
0.058,-0.14,0.956,0.623,12.33,54.035,19.312,66.762,15.375,59.675,0.087,199,8.615,6,25,0.44
0.058,-0.14,0.948,0.623,12.154,54.035,19.312,66.762,15.375,59.675,0.077,176,7.956,6,25,0.475
0.058,-0.14,0.952,0.627,12.681,54.826,19.312,66.762,15.375,59.675,0.077,167,7.56,6,25,0.404
0.058,-0.14,0.948,0.003,-49.692,-57.525,19.312,66.762,15.375,59.675,0.065,147,6.418,6,25,-0.51
0.058,-0.14,0.952,0.003,-49.736,-57.525,19.312,66.762,15.375,59.675,0.057,130,5.626,6,25,-0.492
0.055,-0.136,0.956,0.628,12.725,54.668,19.312,66.762,15.375,59.675,0.081,183,8,6,25,0.369
0.062,-0.14,0.952,0.628,12.681,54.826,19.312,66.762,15.375,59.675,0.085,196,8.571,6,25,0.475
0.055,-0.14,0.956,0.626,12.593,54.826,19.312,66.762,15.375,59.675,0.087,195,8.835,6,25,0.475
0.062,-0.14,0.948,0.626,12.593,54.668,19.312,66.762,15.375,59.675,0.076,176,7.56,6,25,0.492
0.058,-0.136,0.944,0.003,-49.692,-57.525,19.312,66.762,15.375,59.675,0.055,131,5.714,6,25,-0.422
0.055,-0.14,0.959,0.627,12.637,54.826,19.312,66.762,15.375,59.675,0.089,199,8.791,6,25,0.475
0.062,-0.14,0.952,0.627,12.681,54.747,19.312,66.762,15.375,59.675,0.081,187,8.088,6,25,0.422
0.058,-0.136,0.94,0.627,12.681,54.668,19.312,66.762,15.375,59.675,0.078,176,7.604,6,25,0.492
0.058,-0.14,0.956,0.625,12.462,54.51,19.312,66.762,15.375,59.675,0.073,170,7.341,6,25,0.492
0.058,-0.14,0.948,0.626,12.593,54.589,19.312,66.762,15.375,59.675,0.087,196,8.484,6,25,0.44
0.055,-0.136,0.948,0.003,-49.692,-57.446,19.312,66.762,15.375,59.675,0.063,139,6.242,6,25,-0.369
0.058,-0.136,0.94,0.003,-49.692,-57.446,19.312,66.762,15.375,59.675,0.059,136,5.802,6,25,-0.475
0.058,-0.136,0.94,0.626,12.637,54.747,19.312,66.762,15.375,59.675,0.087,186,8.747,6,25,0.334
0.058,-0.136,0.94,0.626,12.637,54.747,19.312,66.762,15.375,59.675,0.087,186,8.747,6,25,0.334
0.058,-0.132,0.956,0.626,12.593,54.668,19.312,66.762,15.375,59.675,0.086,197,8.571,6,25,0.492
0.062,-0.14,0.956,0.627,12.593,54.589,19.312,66.762,15.375,59.675,0.08,186,7.868,6,25,0.404
0.058,-0.136,0.952,0.088,-41.604,-43.046,19.312,66.762,15.375,59.675,0.061,138,6.022,6,25,-0.457
0.058,-0.136,0.952,0.622,12.198,53.798,19.312,66.762,15.375,59.675,0.076,167,7.121,6,25,0.369
0.058,-0.14,0.94,0.623,12.286,54.035,19.312,66.762,15.375,59.675,0.092,207,8.879,6,25,0.457
0.058,-0.144,0.952,0.623,12.286,54.035,19.312,66.762,15.375,59.675,0.084,196,8.571,6,25,0.457
0.066,-0.14,0.952,0.624,12.33,54.114,19.312,66.762,15.375,59.675,0.081,180,8,6,25,0.387
0.055,-0.14,0.956,0.225,-27.934,-18.36,19.312,66.762,15.375,59.675,0.067,156,6.637,6,25,-0.246
0.055,-0.128,0.948,0.222,-27.978,-18.36,19.312,66.762,15.375,59.675,0.07,161,7.077,6,25,-0.176
0.062,-0.14,0.936,0.206,-29.736,-21.288,19.312,66.762,15.375,59.675,0.065,142,6.198,6,25,-0.44
0.055,-0.14,0.956,0.189,-31.451,-25.165,19.312,66.762,15.375,59.675,0.055,125,5.451,6,25,-0.229
0.055,-0.14,0.952,0.164,-33.912,-29.279,19.312,66.762,15.375,59.675,0.069,149,6.681,6,25,-0.229
0.055,-0.14,0.956,0.151,-35.187,-31.336,19.312,66.762,15.375,59.675,0.067,149,6.505,6,25,-0.158
0.058,-0.136,0.944,0.622,12.242,53.956,19.312,66.762,15.375,59.675,0.074,174,7.648,6,25,0.44
0.058,-0.136,0.948,0.002,-49.824,-57.763,19.312,66.762,15.375,59.675,0.068,163,7.033,6,25,-0.492
0.055,-0.14,0.956,0.627,12.637,54.668,19.312,66.762,15.375,59.675,0.089,201,8.967,6,25,0.475
0.058,-0.14,0.948,0.625,12.637,54.747,19.312,66.762,15.375,59.675,0.084,200,8.659,6,25,0.492
0.058,-0.14,0.948,0.626,12.549,54.589,19.312,66.762,15.375,59.675,0.076,171,7.56,6,25,0.51
0.055,-0.136,0.948,0.626,12.505,54.51,19.312,66.762,15.375,59.675,0.086,197,8.615,6,25,0.475
0.055,-0.136,0.948,0.626,12.505,54.51,19.312,66.762,15.375,59.675,0.086,197,8.615,6,25,0.475
0.058,-0.14,0.952,0.026,-47.407,-53.49,19.312,66.762,15.375,59.675,0.059,133,5.758,6,25,-0.51
0.058,-0.14,0.944,0.625,12.505,54.352,19.312,66.762,15.375,59.675,0.084,188,8.44,6,25,0.44
0.055,-0.14,0.94,0.624,11.758,53.64,19.312,66.762,15.344,59.619,0.076,176,7.604,6,25,0.387
0.058,-0.14,0.952,0.626,12.593,54.51,19.312,66.762,15.344,59.619,0.083,191,8.527,6,25,0.422
0.058,-0.136,0.952,0.623,12.242,53.877,19.312,66.762,15.344,59.619,0.083,188,8.264,6,25,0.545
0.058,-0.14,0.952,0.622,12.286,54.035,19.312,66.762,15.344,59.619,0.073,169,7.429,6,25,0.422
0.058,-0.14,0.944,0.03,-46.967,-52.382,19.312,66.762,15.344,59.619,0.065,153,6.681,6,25,-0.527
0.058,-0.14,0.952,0.064,-43.758,-46.844,19.312,66.762,15.344,59.619,0.058,124,5.451,6,25,-0.457
0.058,-0.14,0.952,0.064,-43.758,-46.844,20.156,68.281,15.344,59.619,0.058,124,5.451,6,25,-0.457
0.058,-0.136,0.956,0.076,-42.571,-44.787,20.156,68.281,15.344,59.619,0.063,136,6.022,6,25,-0.457
0.058,-0.14,0.952,0.002,-49.78,-57.684,20.156,68.281,15.344,59.619,0.062,145,6.198,6,25,-0.492
0.062,-0.14,0.956,0.002,-49.78,-57.604,20.156,68.281,15.344,59.619,0.054,122,5.495,6,25,-0.404
0.058,-0.14,0.944,0.001,-49.868,-57.684,20.156,68.281,15.344,59.619,0.059,138,5.846,6,25,-0.457
0.055,-0.136,0.944,0.001,-49.824,-57.684,20.156,68.281,15.344,59.619,0.061,141,6.11,6,25,-0.422
0.058,-0.14,0.948,0.002,-49.824,-57.604,20.156,68.281,15.344,59.619,0.053,122,5.275,6,25,-0.545
0.055,-0.14,0.948,0.002,-49.78,-57.525,20.156,68.281,15.344,59.619,0.06,136,5.978,6,25,-0.492
0.055,-0.14,0.952,0.626,12.637,54.51,20.156,68.281,15.344,59.619,0.089,197,8.879,6,25,0.457
0.058,-0.14,0.936,0.625,12.505,54.51,20.156,68.281,15.344,59.619,0.08,179,7.824,6,25,0.404
0.058,-0.14,0.956,0.003,-49.692,-57.525,20.156,68.281,15.344,59.619,0.066,147,6.593,6,25,-0.44
0.062,-0.14,0.956,0.002,-49.78,-57.604,20.156,68.281,15.344,59.619,0.055,127,5.758,6,25,-0.44
0.058,-0.14,0.952,0.003,-49.78,-57.604,20.156,68.281,15.344,59.619,0.053,123,5.407,6,25,-0.404
0.062,-0.14,0.952,0.002,-49.824,-57.604,20.156,68.281,15.344,59.619,0.059,137,5.978,6,25,-0.475
0.062,-0.14,0.952,0.143,-36.066,-33.077,20.156,68.281,15.344,59.619,0.058,134,5.758,6,25,-0.352
0.058,-0.136,0.956,0.145,-35.714,-32.681,20.156,68.281,15.344,59.619,0.065,144,6.154,6,25,-0.404
0.055,-0.144,0.944,0.627,12.681,54.747,20.156,68.281,15.344,59.619,0.078,179,7.868,6,25,0.44
0.058,-0.14,0.956,0.627,12.681,54.826,20.156,68.281,15.344,59.619,0.08,179,7.868,6,25,0.475
0.062,-0.132,0.959,0.626,12.593,54.352,20.156,68.281,15.344,59.619,0.08,179,7.868,6,25,0.457
0.062,-0.136,0.952,0.627,12.593,54.668,20.156,68.281,15.344,59.619,0.082,188,8.176,6,25,0.387
0.055,-0.14,0.948,0.625,12.549,54.668,20.156,68.281,15.344,59.619,0.082,181,7.824,6,25,0.44
0.058,-0.14,0.952,0.07,-43.187,-45.895,20.156,68.281,15.344,59.619,0.061,136,5.89,6,25,-0.404
0.058,-0.14,0.948,0.627,12.681,54.668,20.156,68.281,15.344,59.619,0.082,183,8.088,6,25,0.457
0.058,-0.14,0.956,0.626,12.637,54.589,20.156,68.281,15.344,59.619,0.087,197,8.615,6,25,0.457
0.058,-0.144,0.956,0.626,12.549,54.51,20.156,68.281,15.344,59.619,0.077,177,7.824,6,25,0.387
0.058,-0.14,0.956,0.625,12.505,54.431,20.156,68.281,15.344,59.619,0.085,191,8.44,6,25,0.545
0.058,-0.132,0.952,0.092,-40.945,-41.78,20.156,68.281,15.344,59.619,0.062,137,6.154,6,25,-0.475
0.062,-0.14,0.956,0.096,-40.593,-41.147,20.156,68.281,15.344,59.619,0.079,180,8.088,6,25,-0.475
0.062,-0.14,0.952,0.091,-41.077,-41.701,20.156,68.281,15.344,59.619,0.068,148,6.725,6,25,-0.492
0.055,-0.136,0.948,0.091,-40.901,-41.622,20.156,68.281,15.344,59.619,0.064,148,6.549,6,25,-0.475
0.051,-0.14,0.94,0.087,-41.253,-42.176,20.156,68.281,15.344,59.619,0.068,157,6.725,6,25,-0.422
0.051,-0.14,0.94,0.087,-41.253,-42.176,20.156,68.281,15.344,59.619,0.068,157,6.725,6,25,-0.422
0.058,-0.14,0.952,0.623,12.198,53.956,20.156,68.281,15.344,59.619,0.086,190,8.44,6,25,0.492
0.055,-0.14,0.952,0.622,12.11,53.719,20.156,68.281,15.344,59.619,0.081,183,8.308,6,25,0.457
0.058,-0.14,0.956,0.622,12.154,53.798,20.156,68.281,15.344,59.619,0.077,180,7.824,6,25,0.422
0.058,-0.136,0.959,0.623,12.242,53.877,20.156,68.281,15.344,59.619,0.078,180,7.912,6,25,0.352
0.058,-0.14,0.94,0.622,12.198,53.956,20.156,68.281,15.344,59.619,0.081,183,8.22,6,25,0.44
0.058,-0.14,0.952,0.627,12.681,54.668,20.156,68.281,15.344,59.619,0.082,180,8,6,25,0.422
0.055,-0.14,0.956,0.032,-46.879,-52.382,20.156,68.281,15.344,59.619,0.056,123,5.538,6,25,-0.404
0.055,-0.14,0.956,0.625,12.593,54.51,20.156,68.281,15.344,59.619,0.084,189,8.44,6,25,0.51
0.058,-0.14,0.952,0.031,-46.835,-52.462,20.156,68.281,15.344,59.619,0.058,122,5.451,6,25,-0.615
0.058,-0.14,0.959,0.033,-46.791,-52.066,20.156,68.281,15.344,59.619,0.052,128,5.582,6,25,-0.598
0.058,-0.14,0.952,0.036,-46.396,-51.354,20.156,68.281,15.344,59.619,0.064,149,6.769,5,21,-0.527
0.058,-0.14,0.952,0.626,12.549,54.352,20.156,68.281,15.344,59.619,0.076,175,7.824,5,21,0.457
0.055,-0.14,0.952,0.004,-49.604,-57.288,20.156,68.281,15.344,59.619,0.062,139,6.505,5,21,-0.422
0.055,-0.14,0.952,0.004,-49.604,-57.288,20.156,68.281,15.344,59.619,0.062,139,6.505,5,21,-0.422
0.058,-0.14,0.956,0.003,-49.736,-57.604,20.156,68.281,15.312,59.562,0.061,139,6.198,5,21,-0.51
0.051,-0.136,0.916,0.002,-49.824,-57.684,20.156,68.281,15.312,59.562,0.055,129,5.495,5,21,-0.475
0.039,-0.144,0.932,0.004,-49.56,-57.288,20.156,68.281,15.312,59.562,0.06,139,6.198,5,21,-0.475
0.055,-0.144,0.952,0.622,12.242,53.877,20.156,68.281,15.312,59.562,0.082,185,8.088,5,21,0.387
0.058,-0.14,0.952,0.003,-49.736,-57.604,20.875,69.575,15.312,59.562,0.06,137,5.978,5,21,-0.457
0.058,-0.136,0.952,0.622,12.198,53.956,20.875,69.575,15.312,59.562,0.084,189,8.132,5,21,0.44
0.062,-0.136,0.952,0.622,12.154,54.114,20.875,69.575,15.312,59.562,0.076,172,7.341,5,21,0.44
0.058,-0.14,0.952,0.622,12.066,53.64,20.875,69.575,15.312,59.562,0.081,190,8.088,5,21,0.492
0.055,-0.14,0.952,0.622,12.198,53.719,20.875,69.575,15.312,59.562,0.078,180,8,5,21,0.387
0.058,-0.14,0.948,0.011,-48.901,-56.022,20.875,69.575,15.312,59.562,0.061,128,5.714,5,21,-0.369
0.058,-0.14,0.948,0.011,-48.901,-56.022,20.875,69.575,15.312,59.562,0.061,128,5.714,5,21,-0.369
0.051,-0.14,0.94,0.626,12.637,54.589,20.875,69.575,15.312,59.562,0.077,177,7.648,5,21,0.51
0.062,-0.136,0.952,0.626,12.549,54.747,20.875,69.575,15.312,59.562,0.075,171,7.648,5,21,0.457
0.055,-0.144,0.94,0.625,12.462,54.51,20.875,69.575,15.312,59.562,0.077,176,7.78,5,21,0.457
0.058,-0.136,0.952,0.627,12.593,54.589,20.875,69.575,15.312,59.562,0.083,187,8.264,5,21,0.44
0.055,-0.136,0.952,0.141,-35.89,-32.681,20.875,69.575,15.312,59.562,0.062,139,6.154,5,21,-0.334
0.058,-0.136,0.952,0.137,-36.593,-34.185,20.875,69.575,15.312,59.562,0.058,129,5.582,5,21,-0.334
0.058,-0.144,0.948,0.628,12.593,54.589,20.875,69.575,15.312,59.562,0.079,180,7.692,5,21,0.422
0.055,-0.144,0.952,0.627,12.593,54.668,20.875,69.575,15.312,59.562,0.08,177,7.912,5,21,0.422
0.055,-0.144,0.948,0.625,12.505,54.589,20.875,69.575,15.312,59.562,0.076,176,7.648,5,21,0.51
0.055,-0.14,0.952,0.627,12.637,54.747,20.875,69.575,15.312,59.562,0.077,172,7.692,5,21,0.457
0.058,-0.14,0.952,0.032,-46.747,-52.145,20.875,69.575,15.312,59.562,0.058,136,5.758,5,21,-0.545
0.058,-0.136,0.948,0.625,12.505,54.51,20.875,69.575,15.312,59.562,0.079,179,7.912,5,21,0.422
0.058,-1.138,0.956,0.036,-46.571,-52.145,20.875,69.575,15.312,59.562,0.055,132,5.714,5,21,-0.563
0.058,-0.136,0.948,0.038,-46.703,-52.145,20.875,69.575,15.312,59.562,0.056,123,5.714,5,21,-0.58
0.058,-0.144,0.944,0.032,-46.879,-52.224,20.875,69.575,15.312,59.562,0.055,124,5.67,5,21,-0.563
0.047,-0.14,0.94,0.627,12.681,54.826,20.875,69.575,15.312,59.562,0.086,192,8.615,5,21,0.475
0.043,-0.144,0.928,0.002,-49.824,-57.604,20.875,69.575,15.312,59.562,0.057,126,5.538,5,21,-0.404
0.043,-0.144,0.932,0.626,12.549,54.747,20.875,69.575,15.312,59.562,0.079,179,7.824,5,21,0.44
0.035,-0.144,0.932,0.625,12.593,54.51,20.875,69.575,15.312,59.562,0.08,183,8.088,5,21,0.492
0.031,-0.144,0.92,0.626,12.549,54.51,20.875,69.575,15.312,59.562,0.079,181,7.824,5,21,0.44
0.039,-0.144,0.932,0.625,12.549,54.51,20.875,69.575,15.312,59.562,0.076,175,7.692,5,21,0.475
0.051,-0.14,0.944,0.622,12.242,54.114,20.875,69.575,15.312,59.562,0.077,176,7.824,5,21,0.404
0.055,-0.14,0.948,0.157,-34.659,-30.387,20.875,69.575,15.312,59.562,0.06,135,6.154,5,21,-0.352
0.058,-0.14,0.952,0.622,12.242,54.035,20.875,69.575,15.312,59.562,0.076,172,7.648,5,21,0.404
0.055,-0.14,0.952,0.622,12.198,53.719,20.875,69.575,15.312,59.562,0.077,170,7.824,5,21,0.369
0.055,-0.14,0.956,0.622,12.242,53.956,20.875,69.575,15.312,59.562,0.078,171,7.736,5,21,0.404
0.062,-0.14,0.952,0.622,12.11,53.798,20.875,69.575,15.312,59.562,0.078,174,7.604,5,21,0.475
0.062,-0.136,0.952,0.623,12.198,53.877,20.875,69.575,15.312,59.562,0.079,178,7.868,5,21,0.334
0.058,-0.144,0.959,0.174,-32.945,-27.697,20.875,69.575,15.312,59.562,0.061,137,6.022,5,21,-0.211
0.055,-0.14,0.956,0.622,12.198,53.956,20.875,69.575,15.312,59.562,0.079,179,7.868,5,21,0.475
0.058,-0.14,0.952,0.175,-32.769,-27.301,20.875,69.575,15.312,59.562,0.061,140,6.066,5,21,-0.299
0.058,-0.14,0.952,0.175,-32.769,-27.301,20.875,69.575,15.312,59.562,0.061,140,6.066,5,21,-0.299
0.058,-0.14,0.956,0.178,-32.462,-26.668,20.875,69.575,15.312,59.562,0.059,132,5.802,5,21,-0.264
0.058,-0.14,0.959,0.02,-48.154,-54.519,20.875,69.575,15.312,59.562,0.058,127,5.67,5,21,-0.475
0.058,-0.144,0.956,0.626,12.593,54.51,20.875,69.575,15.312,59.562,0.082,188,8.132,5,21,0.44
0.062,-0.136,0.948,0.023,-47.978,-54.36,20.875,69.575,15.312,59.562,0.058,131,5.714,5,21,-0.51
0.058,-0.144,0.956,0.02,-48.11,-54.44,20.875,69.575,15.312,59.562,0.058,137,5.846,5,21,-0.527
0.058,-0.14,0.952,0.021,-47.934,-54.202,20.875,69.575,15.312,59.562,0.061,148,6.33,5,21,-0.563
0.055,-0.14,0.952,0.626,12.549,54.747,20.875,69.575,15.312,59.562,0.084,187,8.308,5,21,0.44
0.058,-0.14,0.948,0.123,-37.912,-36.242,20.875,69.575,15.156,59.281,0.061,133,6.198,5,21,-0.387
0.055,-0.14,0.928,0.623,12.242,53.877,20.875,69.575,15.156,59.281,0.077,174,7.824,5,21,0.404
0.058,-0.14,0.956,0.125,-37.473,-35.451,20.875,69.575,15.156,59.281,0.059,129,5.934,5,21,-0.352
0.062,-0.14,0.956,0.125,-37.692,-35.846,20.875,69.575,15.156,59.281,0.061,131,5.978,5,21,-0.422
0.058,-0.136,0.952,0.128,-37.473,-35.767,20.875,69.575,15.156,59.281,0.058,129,5.846,5,21,-0.369
0.055,-0.136,0.952,0.129,-37.341,-35.371,19.688,67.438,15.156,59.281,0.058,133,5.758,6,25,-0.281
0.055,-0.14,0.952,0.147,-35.495,-31.969,19.688,67.438,15.156,59.281,0.061,139,6.11,6,25,-0.404
0.058,-0.136,0.952,0.622,12.198,53.956,19.688,67.438,15.156,59.281,0.077,178,7.604,6,25,0.44
0.055,-0.14,0.948,0.622,12.11,53.956,19.688,67.438,15.156,59.281,0.079,180,7.956,6,25,0.51
0.058,-0.136,0.956,0.623,12.198,53.956,19.688,67.438,15.156,59.281,0.079,174,7.692,6,25,0.457
0.058,-0.136,0.956,0.623,12.198,53.956,19.688,67.438,15.156,59.281,0.079,174,7.692,6,25,0.457
0.058,-0.14,0.952,0.621,12.154,53.798,19.688,67.438,15.156,59.281,0.079,180,7.736,6,25,0.44
0.058,-0.14,0.952,0.084,-41.78,-43.284,19.688,67.438,15.156,59.281,0.057,129,5.67,6,25,-0.475
0.055,-0.14,0.948,0.084,-41.824,-43.204,19.688,67.438,15.156,59.281,0.056,130,5.451,6,25,-0.475
0.055,-0.14,0.948,0.084,-41.824,-43.204,19.688,67.438,15.156,59.281,0.056,130,5.451,6,25,-0.475
0.058,-0.14,0.956,0.085,-41.604,-43.363,19.688,67.438,15.156,59.281,0.058,132,5.538,6,25,-0.527
0.058,-0.14,0.952,0.085,-41.824,-43.442,19.688,67.438,15.156,59.281,0.057,133,5.758,6,25,-0.545
0.058,-0.144,0.956,0.626,12.549,54.51,19.688,67.438,15.156,59.281,0.076,177,7.648,6,25,0.422
0.058,-0.14,0.952,0.012,-49.253,-56.576,19.688,67.438,15.156,59.281,0.056,124,5.67,6,25,-0.457
0.058,-0.14,0.956,0.626,12.549,54.431,19.688,67.438,15.156,59.281,0.081,183,8,6,25,0.457
0.062,-0.14,0.952,0.626,12.593,54.589,19.688,67.438,15.156,59.281,0.077,174,7.604,6,25,0.51
0.055,-0.14,0.952,0.626,12.593,54.51,19.688,67.438,15.156,59.281,0.076,173,7.604,6,25,0.404
0.058,-0.14,0.956,0.627,12.549,54.747,19.688,67.438,15.156,59.281,0.08,182,8,6,25,0.422
0.058,-0.14,0.959,0.003,-49.78,-57.525,19.688,67.438,15.156,59.281,0.058,131,5.89,6,25,-0.404
0.055,-0.14,0.956,0.002,-49.78,-57.604,19.688,67.438,15.156,59.281,0.059,138,5.89,6,25,-0.44
0.058,-0.136,0.959,0.003,-49.736,-57.604,19.688,67.438,15.156,59.281,0.057,127,5.538,6,25,-0.527
0.055,-0.14,0.963,0.004,-49.604,-57.288,19.688,67.438,15.156,59.281,0.056,130,5.846,6,25,-0.457
0.058,-0.14,0.952,0.003,-49.736,-57.525,19.688,67.438,15.156,59.281,0.056,127,5.758,6,25,-0.475
0.058,-0.14,0.948,0.002,-49.78,-57.604,19.688,67.438,15.156,59.281,0.06,134,6.022,6,25,-0.51
0.058,-0.14,0.956,0.627,12.593,54.668,19.688,67.438,15.156,59.281,0.083,184,8.264,6,25,0.44
0.058,-0.144,0.956,0.003,-49.78,-57.604,19.688,67.438,15.156,59.281,0.055,125,5.538,6,25,-0.44
0.058,-0.136,0.952,0.002,-49.824,-57.684,19.688,67.438,15.156,59.281,0.057,134,5.802,6,25,-0.44
0.055,-0.144,0.959,0.002,-49.868,-57.763,19.688,67.438,15.156,59.281,0.059,136,5.802,6,25,-0.457
0.058,-0.14,0.956,0.002,-49.78,-57.684,19.688,67.438,15.156,59.281,0.058,131,5.67,6,25,-0.422
0.051,-0.132,0.952,0.622,12.11,53.56,19.688,67.438,15.156,59.281,0.082,190,8.044,6,25,0.563
0.058,-0.14,0.956,0.111,-39.275,-38.932,19.688,67.438,15.156,59.281,0.058,134,5.758,6,25,-0.387
0.058,-0.144,0.956,0.113,-38.791,-37.903,19.688,67.438,15.156,59.281,0.057,136,5.758,6,25,-0.369
0.058,-0.14,0.956,0.112,-38.879,-37.824,19.688,67.438,15.156,59.281,0.055,133,5.89,6,25,-0.44
0.055,-0.132,0.944,0.109,-39.451,-38.774,19.688,67.438,15.156,59.281,0.058,137,5.846,6,25,-0.422
0.066,-0.14,0.948,0.114,-38.791,-38.062,19.688,67.438,15.156,59.281,0.058,137,6.198,6,25,-0.404
0.055,-0.14,0.952,0.622,12.154,53.64,19.688,67.438,15.156,59.281,0.077,173,7.78,6,25,0.404
0.058,-0.14,0.959,0.012,-48.725,-55.864,19.688,67.438,15.156,59.281,0.057,129,5.407,6,25,-0.422
0.055,-0.14,0.956,0.626,12.462,54.352,19.688,67.438,15.156,59.281,0.08,184,7.868,6,25,0.44
0.039,-0.144,0.928,0.625,12.505,54.51,19.688,67.438,15.156,59.281,0.079,180,7.692,6,25,0.492
0.043,-0.14,0.936,0.625,12.549,54.589,19.688,67.438,15.156,59.281,0.08,182,7.956,6,25,0.492
0.039,-0.144,0.94,0.625,12.462,54.352,19.688,67.438,15.156,59.281,0.078,178,7.824,6,25,0.457
0.043,-0.136,0.956,0.625,12.505,54.51,19.688,67.438,15.156,59.281,0.078,177,7.956,6,25,0.44
0.055,-0.14,0.956,0.03,-47.055,-52.699,19.688,67.438,15.156,59.281,0.058,129,5.758,6,25,-0.51
0.055,-0.136,0.956,0.626,12.637,54.589,19.688,67.438,15.156,59.281,0.08,179,7.956,6,25,0.457
0.055,-0.136,0.959,0.626,12.549,54.51,19.688,67.438,15.156,59.281,0.079,175,7.78,6,25,0.422
0.055,-1.138,0.952,0.626,12.637,54.668,19.688,67.438,15.156,59.281,0.081,179,8.044,6,25,0.457
0.058,-0.14,0.952,0.625,12.549,54.431,19.688,67.438,15.281,59.506,0.079,180,7.912,6,25,0.527
0.055,-0.14,0.956,0.622,12.022,53.64,19.688,67.438,15.281,59.506,0.077,178,7.824,6,25,0.492
0.051,-0.136,0.952,0.622,12.198,53.877,19.688,67.438,15.281,59.506,0.082,183,8.088,6,25,0.44
0.051,-0.136,0.952,0.622,12.198,53.877,19.688,67.438,15.281,59.506,0.082,183,8.088,6,25,0.44
0.055,-0.14,0.956,0.007,-49.165,-56.418,19.688,67.438,15.281,59.506,0.058,124,5.714,6,25,-0.457
0.055,-0.14,0.956,0.009,-49.077,-56.338,18.344,65.019,15.281,59.506,0.062,138,5.934,6,25,-0.457
0.062,-0.136,0.956,0.622,12.154,53.956,18.344,65.019,15.281,59.506,0.08,185,8.088,6,25,0.422
0.055,-0.136,0.948,0.003,-49.692,-57.525,18.344,65.019,15.281,59.506,0.056,125,5.626,6,25,-0.492
0.058,-0.14,0.952,0.623,12.286,53.956,18.344,65.019,15.281,59.506,0.08,177,7.956,6,25,0.387
0.055,-0.14,0.956,0.622,12.066,53.798,18.344,65.019,15.281,59.506,0.076,179,7.604,6,25,0.457
0.058,-0.14,0.959,0.622,12.022,53.877,18.344,65.019,15.281,59.506,0.076,177,7.648,6,25,0.44
0.058,-0.14,0.952,0.626,12.549,54.589,18.344,65.019,15.281,59.506,0.079,182,7.912,6,25,0.404
0.055,-0.128,0.952,0.625,12.505,54.589,18.344,65.019,15.281,59.506,0.08,179,7.912,6,25,0.457
0.055,-0.136,0.952,0.627,12.549,54.589,18.344,65.019,15.281,59.506,0.08,180,7.824,6,25,0.44
0.058,-0.14,0.952,0.007,-49.297,-56.813,18.344,65.019,15.281,59.506,0.056,127,5.758,6,25,-0.457
0.058,-0.136,0.952,0.626,12.462,54.51,18.344,65.019,15.281,59.506,0.079,178,7.912,7,30,0.492
0.062,-0.14,0.959,0.626,12.593,54.589,18.344,65.019,15.281,59.506,0.079,176,7.648,7,30,0.475
0.058,-0.14,0.956,0.627,12.769,54.747,18.344,65.019,15.281,59.506,0.081,179,8,7,30,0.44
0.039,-0.144,0.936,0.626,12.593,54.589,18.344,65.019,15.281,59.506,0.076,177,7.78,7,30,0.422
0.035,-0.144,0.948,0.076,-42.615,-44.708,18.344,65.019,15.281,59.506,0.055,123,5.407,7,30,-0.475
0.035,-0.144,0.948,0.076,-42.615,-44.708,18.344,65.019,15.281,59.506,0.055,123,5.407,7,30,-0.475
0.058,-0.14,0.948,0.076,-42.527,-44.629,18.344,65.019,15.281,59.506,0.056,128,5.626,7,30,-0.44
0.058,-0.136,0.963,0.08,-42.176,-44.075,18.344,65.019,15.281,59.506,0.059,125,5.626,7,30,-0.545
0.058,-0.136,0.956,0.084,-41.648,-43.046,18.344,65.019,15.281,59.506,0.058,128,5.846,7,30,-0.404
0.055,-0.14,0.959,0.625,12.505,54.51,18.344,65.019,15.281,59.506,0.079,177,7.824,7,30,0.492
0.055,-0.14,0.956,0.007,-49.385,-56.813,18.344,65.019,15.281,59.506,0.054,128,5.407,7,30,-0.475
0.058,-0.14,0.952,0.625,12.549,54.51,18.344,65.019,15.281,59.506,0.077,173,7.604,7,30,0.457
0.058,-0.14,0.956,0.625,12.637,54.589,18.344,65.019,15.281,59.506,0.078,173,7.692,7,30,0.44
0.062,-0.14,0.959,0.625,12.505,54.589,18.344,65.019,15.281,59.506,0.078,179,7.912,7,30,0.475
0.058,-0.14,0.959,0.625,12.505,54.668,18.344,65.019,15.281,59.506,0.078,173,7.692,7,30,0.475
0.055,-0.136,0.956,0.626,12.549,54.51,18.344,65.019,15.281,59.506,0.084,196,8.571,7,30,0.475
0.058,-0.14,0.952,0.149,-35.363,-31.574,18.344,65.019,15.281,59.506,0.068,157,6.989,7,30,-0.316
0.058,-0.14,-0.039,0.621,12.022,53.481,18.344,65.019,15.281,59.506,0.078,184,7.78,7,30,0.404
0.055,-0.136,0.959,0.622,12.11,53.719,18.344,65.019,15.281,59.506,0.078,172,7.516,7,30,0.51
0.055,-0.14,0.956,0.622,12.11,53.798,18.344,65.019,15.281,59.506,0.078,176,7.648,7,30,0.475
0.055,-0.136,0.952,0.622,12.154,53.719,18.344,65.019,15.281,59.506,0.08,183,8.088,7,30,0.457
0.058,-0.136,0.959,0.621,12.11,53.798,18.344,65.019,15.281,59.506,0.078,179,7.78,7,30,0.369
0.058,-0.144,0.948,0.065,-43.714,-46.765,18.344,65.019,15.281,59.506,0.056,131,5.582,7,30,-0.492
0.058,-0.14,0.956,0.065,-43.714,-46.844,18.344,65.019,15.281,59.506,0.057,127,5.626,7,30,-0.492
0.058,-0.14,0.959,0.053,-44.945,-48.347,18.344,65.019,15.281,59.506,0.058,133,5.758,7,30,-0.527
0.062,-0.14,0.956,0.059,-44.286,-47.793,18.344,65.019,15.281,59.506,0.058,134,5.758,7,30,-0.492
0.058,-0.14,0.963,0.066,-43.538,-46.527,18.344,65.019,15.281,59.506,0.055,127,5.626,7,30,-0.475
0.058,-0.144,0.959,0.047,-46.088,-51.037,18.344,65.019,15.281,59.506,0.056,129,5.538,7,30,-0.404
0.058,-0.136,1.95,0.04,-46.264,-51.196,18.344,65.019,15.281,59.506,0.056,129,5.67,7,30,-0.334
0.058,-0.14,0.959,0.036,-46.615,-51.987,18.344,65.019,15.281,59.506,0.057,129,5.538,7,30,-0.563
0.058,-0.136,0.956,0.046,-45.912,-50.721,18.344,65.019,15.281,59.506,0.06,135,6.022,7,30,-0.598
0.058,-0.136,0.952,0.041,-46.22,-51.275,18.344,65.019,15.281,59.506,0.056,132,5.89,7,30,-0.598
0.058,-0.14,0.956,0.625,12.549,54.51,18.344,65.019,15.281,59.506,0.082,180,8.088,7,30,0.422
0.055,-0.14,0.956,0.007,-49.165,-56.418,18.344,65.019,15.281,59.506,0.057,133,5.714,7,30,-0.457
0.058,-0.136,0.952,0.627,12.549,54.51,18.344,65.019,15.281,59.506,0.08,181,7.78,7,30,0.492
0.055,-0.14,0.956,0.626,12.593,54.668,18.344,65.019,15.375,59.675,0.079,174,7.824,7,30,0.44
0.058,-0.136,0.948,0.623,12.242,53.798,18.344,65.019,15.375,59.675,0.077,177,7.648,7,30,0.457
0.058,-0.14,0.952,0.622,12.11,53.719,18.344,65.019,15.375,59.675,0.078,174,7.912,7,30,0.404
0.051,-0.14,0.956,0.621,11.978,53.719,18.344,65.019,15.375,59.675,0.079,179,7.868,7,30,0.44
0.055,-0.136,0.956,0.012,-48.769,-55.864,18.344,65.019,15.375,59.675,0.056,123,5.67,7,30,-0.527
0.062,-0.14,1.954,0.622,12.154,53.798,18.344,65.019,15.375,59.675,0.078,179,7.56,7,30,0.457
0.058,-0.152,0.94,0.622,12.154,53.798,17.688,63.838,15.375,59.675,0.078,179,7.56,7,30,0.457
0.055,-0.136,0.956,0.622,12.11,53.64,17.688,63.838,15.375,59.675,0.078,174,7.473,7,30,0.51
0.058,-0.144,0.952,0.622,12.242,53.956,17.688,63.838,15.375,59.675,0.079,177,7.692,7,30,0.492
0.055,-0.14,0.952,0.622,12.154,54.035,17.688,63.838,15.375,59.675,0.08,180,7.868,7,30,0.44
0.058,-0.14,0.956,0.622,12.11,53.719,17.688,63.838,15.375,59.675,0.076,176,7.868,7,30,0.404
0.062,-0.136,0.952,0.622,12.198,53.956,17.688,63.838,15.375,59.675,0.081,180,7.824,7,30,0.387
0.055,-0.14,0.952,0.627,12.593,54.589,17.688,63.838,15.375,59.675,0.078,176,7.868,7,30,0.422
0.055,-0.14,0.952,0.627,12.593,54.589,17.688,63.838,15.375,59.675,0.078,176,7.868,7,30,0.422
0.058,-0.14,0.956,0.625,12.374,54.352,17.688,63.838,15.375,59.675,0.076,173,7.736,7,30,0.457
0.062,-0.144,0.948,0.625,12.418,54.431,17.688,63.838,15.375,59.675,0.078,182,7.912,7,30,0.457
0.062,-0.14,0.959,0.626,12.549,54.352,17.688,63.838,15.375,59.675,0.078,174,7.56,7,30,0.492
0.055,-0.136,0.952,0.625,12.462,54.431,17.688,63.838,15.375,59.675,0.076,179,7.736,7,30,0.44
0.055,-0.14,0.956,0.625,12.374,54.431,17.688,63.838,15.375,59.675,0.078,175,7.604,7,30,0.457
0.058,-0.144,0.94,0.625,12.418,54.431,17.688,63.838,15.375,59.675,0.077,183,7.912,7,30,0.475
0.058,-0.14,0.956,0.625,12.549,54.51,17.688,63.838,15.375,59.675,0.08,182,8.044,7,30,0.475
0.055,-0.14,0.952,0.625,12.462,54.352,17.688,63.838,15.375,59.675,0.076,176,7.692,7,30,0.422
0.058,-0.14,0.956,0.003,-48.769,-57.367,17.688,63.838,15.375,59.675,0.055,123,5.67,7,30,-0.422
0.058,-0.144,0.94,0.627,12.637,54.668,17.688,63.838,15.375,59.675,0.08,185,8.044,7,30,0.422
0.058,-0.14,0.956,0.625,12.418,54.273,17.688,63.838,15.375,59.675,0.076,179,7.56,7,30,0.492
0.058,-0.14,0.956,0.626,12.505,54.51,17.688,63.838,15.375,59.675,0.078,179,7.868,7,30,0.475
0.058,-0.14,0.956,0.625,12.505,54.352,17.688,63.838,15.375,59.675,0.08,183,7.78,5,21,0.457
0.055,-0.14,0.948,0.106,-39.758,-39.802,17.688,63.838,15.375,59.675,0.057,130,5.846,5,21,-0.369
0.058,-0.14,0.959,0.625,12.462,54.51,17.688,63.838,15.375,59.675,0.079,179,7.78,5,21,0.457
0.055,-0.14,0.956,0.625,12.549,54.431,17.688,63.838,15.375,59.675,0.078,177,7.648,5,21,0.44
0.062,-0.144,0.956,0.625,12.462,54.352,17.688,63.838,15.375,59.675,0.079,179,7.912,5,21,0.44
0.058,-0.14,0.956,0.622,12.066,53.877,17.688,63.838,15.375,59.675,0.076,175,7.78,5,21,0.457
0.058,-0.14,0.959,0.621,12.066,53.64,17.688,63.838,15.375,59.675,0.078,178,7.912,5,21,0.492
0.058,-0.14,0.959,0.621,12.066,53.64,17.688,63.838,15.375,59.675,0.078,178,7.912,5,21,0.492
0.058,-0.14,0.952,0.021,-47.978,-54.519,17.688,63.838,15.375,59.675,0.057,127,5.495,5,21,-0.545
0.062,-0.136,0.959,0.021,-47.934,-54.202,17.688,63.838,15.375,59.675,0.06,131,5.934,5,21,-0.475
0.058,-0.136,0.959,0.021,-47.89,-53.886,17.688,63.838,15.375,59.675,0.059,134,5.802,5,21,-0.44
0.055,-0.14,0.956,0.024,-47.714,-54.202,17.688,63.838,15.375,59.675,0.058,133,5.67,5,21,-0.527
0.055,-0.136,0.936,0.62,12.11,53.798,17.688,63.838,15.375,59.675,0.079,184,7.956,5,21,0.44
0.058,-0.14,0.956,0.002,-49.824,-57.684,17.688,63.838,15.375,59.675,0.054,127,5.407,5,21,-0.492
0.058,-0.144,0.956,0.622,12.198,53.956,17.688,63.838,15.375,59.675,0.081,181,8.088,5,21,0.387
0.051,-0.14,0.956,0.622,12.154,53.64,17.688,63.838,15.375,59.675,0.077,175,7.736,5,21,0.387
0.058,-0.14,0.956,0.625,12.462,54.273,17.688,63.838,15.375,59.675,0.076,182,7.824,5,21,0.457
0.058,-0.14,0.956,0.625,12.462,54.431,17.688,63.838,15.375,59.675,0.08,178,7.912,5,21,0.492
0.058,-0.14,0.959,0.627,12.593,54.51,17.688,63.838,15.375,59.675,0.076,175,7.56,5,21,0.492
0.058,-0.14,0.956,0.11,-39.011,-38.22,17.688,63.838,15.375,59.675,0.057,127,5.495,5,21,-0.422
0.058,-0.14,0.959,0.626,12.418,54.431,17.688,63.838,15.375,59.675,0.077,179,7.824,5,21,0.492
0.058,-0.136,0.959,0.625,12.593,54.589,17.688,63.838,15.375,59.675,0.077,173,7.604,5,21,0.369
0.062,-0.14,0.956,0.627,12.637,54.589,17.688,63.838,15.375,59.675,0.079,173,7.78,5,21,0.387
0.062,-0.136,0.936,0.626,12.549,54.589,17.688,63.838,15.375,59.675,0.08,179,7.78,5,21,0.404
0.058,-0.14,0.956,0.627,12.593,54.589,17.688,63.838,15.375,59.675,0.078,178,8,5,21,0.475
0.058,-0.14,0.959,0.622,12.198,53.956,17.688,63.838,15.406,59.731,0.077,174,8,5,21,0.475
0.055,-0.14,0.952,0.01,-48.945,-56.101,17.688,63.838,15.406,59.731,0.058,126,5.626,5,21,-0.457
0.058,-0.136,0.944,0.622,12.066,53.402,17.688,63.838,15.406,59.731,0.076,176,7.516,5,21,0.51
0.058,-0.14,0.956,0.009,-49.033,-56.259,17.688,63.838,15.406,59.731,0.057,133,5.89,5,21,-0.475
0.062,-0.14,0.956,0.622,12.154,53.719,17.688,63.838,15.406,59.731,0.078,188,7.912,5,21,0.422
0.062,-0.136,0.956,0.621,12.022,53.798,17,62.6,15.406,59.731,0.079,181,7.912,5,21,0.404
0.055,-0.136,0.959,0.622,12.154,53.798,17,62.6,15.406,59.731,0.08,183,7.956,5,21,0.387
0.058,-0.136,0.952,0.622,12.11,53.877,17,62.6,15.406,59.731,0.077,179,7.604,5,21,0.404
0.055,-0.14,0.956,0.622,12.154,53.719,17,62.6,15.406,59.731,0.079,178,7.692,5,21,0.492
0.062,-0.14,0.948,0.622,12.11,53.798,17,62.6,15.406,59.731,0.078,179,7.78,5,21,0.387
0.062,-0.14,0.959,0.622,12.242,53.798,17,62.6,15.406,59.731,0.078,179,7.824,5,21,0.422
0.058,-0.14,0.956,0.016,-48.418,-55.389,17,62.6,15.406,59.731,0.057,126,5.451,5,21,-0.492
0.055,-0.132,0.956,0.626,12.593,54.51,17,62.6,15.406,59.731,0.08,180,7.868,5,21,0.492
0.058,-0.14,0.952,0.627,12.681,54.668,17,62.6,15.406,59.731,0.077,175,7.692,5,21,0.44
0.062,-0.14,0.956,0.625,12.505,54.431,17,62.6,15.406,59.731,0.076,174,7.604,5,21,0.44
0.062,-0.136,0.952,0.625,12.505,54.431,17,62.6,15.406,59.731,0.076,175,7.736,5,21,0.44
0.055,-0.14,0.956,0.626,12.505,54.431,17,62.6,15.406,59.731,0.077,176,7.692,5,21,0.44
0.058,-0.14,0.956,0.154,-34.791,-30.941,17,62.6,15.406,59.731,0.059,138,5.802,5,21,-0.334
0.058,-0.14,0.956,0.626,12.593,54.905,17,62.6,15.406,59.731,0.076,176,7.648,5,21,0.475
0.055,-0.14,0.956,0.153,-34.835,-30.545,17,62.6,15.406,59.731,0.06,142,5.934,5,21,-0.158
0.062,-0.136,0.956,0.156,-34.484,-30.149,17,62.6,15.406,59.731,0.061,133,5.934,5,21,-0.387
0.055,-0.14,0.959,0.627,12.549,54.589,17,62.6,15.406,59.731,0.081,181,7.956,5,21,0.51
0.062,-0.148,0.959,0.182,-31.978,-25.719,17,62.6,15.406,59.731,0.06,141,6.022,5,21,-0.123
0.058,-0.136,0.952,0.18,-32.242,-26.035,17,62.6,15.406,59.731,0.063,140,6.154,5,21,-0.369
0.055,-0.14,1.954,0.626,12.505,54.51,17,62.6,15.406,59.731,0.081,184,8.044,5,21,0.457
0.055,-0.14,1.954,0.626,12.505,54.51,17,62.6,15.406,59.731,0.081,184,8.044,5,21,0.457
0.055,-0.14,0.956,0.626,12.505,54.668,17,62.6,15.406,59.731,0.085,191,8.396,5,21,0.475
0.062,-0.14,0.959,0.625,12.462,54.51,17,62.6,15.406,59.731,0.085,192,8.396,5,21,0.457
0.055,-0.14,0.959,0.626,12.505,54.51,17,62.6,15.406,59.731,0.084,195,8.44,5,21,0.44
0.062,-0.136,0.956,0.003,-48.11,-57.209,17,62.6,15.406,59.731,0.062,144,6.198,5,21,-0.422
0.062,-0.14,0.956,0.627,12.593,54.589,17,62.6,15.406,59.731,0.085,194,8.44,5,21,0.527
0.058,-0.14,0.956,0.622,12.11,53.798,17,62.6,15.406,59.731,0.082,185,8.396,5,21,0.457
0.058,-0.136,0.956,0.622,12.198,53.719,17,62.6,15.406,59.731,0.083,183,8,5,21,0.492
0.058,-0.14,0.956,0.622,12.11,53.798,17,62.6,15.406,59.731,0.08,181,7.736,5,21,0.457
0.062,-0.136,0.956,0.018,-48.242,-54.835,17,62.6,15.406,59.731,0.067,145,6.154,6,25,-0.598
0.055,-0.136,0.959,0.623,12.33,53.956,17,62.6,15.406,59.731,0.084,194,8.44,6,25,0.422
0.055,-0.136,0.959,0.623,12.33,53.956,17,62.6,15.406,59.731,0.084,194,8.44,6,25,0.422
0.062,-0.14,0.956,0.622,12.11,53.719,17,62.6,15.406,59.731,0.084,194,8.44,6,25,0.422
0.062,-0.14,0.956,0.622,12.11,53.719,17,62.6,15.406,59.731,0.087,192,8.571,6,25,0.44
0.058,-0.14,0.944,0.623,12.154,53.798,17,62.6,15.406,59.731,0.083,189,8.396,6,25,0.51
0.058,-0.14,0.944,0.623,12.154,53.798,17,62.6,15.406,59.731,0.083,189,8.396,6,25,0.51
0.058,-0.14,0.944,0.051,-45.077,-49.297,17,62.6,15.406,59.731,0.06,129,5.758,6,25,-0.527
0.058,-0.144,0.956,0.625,12.418,54.431,17,62.6,15.406,59.731,0.083,185,8.22,6,25,0.422
0.058,-0.144,0.956,0.625,12.418,54.431,17,62.6,15.406,59.731,0.083,185,8.22,6,25,0.422
0.062,-0.144,0.956,0.625,12.462,54.51,17,62.6,15.406,59.731,0.08,182,8.044,6,25,0.44
0.055,-0.14,0.956,0.625,12.462,54.431,17,62.6,15.406,59.731,0.077,181,7.824,6,25,0.422
0.055,-0.136,0.956,0.003,-49.78,-57.604,17,62.6,15.406,59.731,0.059,133,5.802,6,25,-0.422
0.062,-0.14,0.956,0.002,-49.868,-57.684,17,62.6,15.406,59.731,0.057,133,5.89,6,25,-0.527
0.058,-0.136,0.944,0.002,-49.824,-57.604,17,62.6,15.406,59.731,0.058,133,6.066,6,25,-0.475
0.062,-0.14,0.952,0.002,-49.78,-57.604,17,62.6,15.406,59.731,0.058,137,5.846,6,25,-0.492
0.058,-0.136,0.956,0.001,-49.868,-57.684,17,62.6,15.406,59.731,0.062,141,6.33,6,25,-0.352
0.058,-0.14,0.952,0.626,12.462,54.273,17,62.6,15.438,59.787,0.076,176,7.78,6,25,0.387
0.058,-0.14,0.963,0.003,-49.648,-57.288,17,62.6,15.438,59.787,0.055,128,5.714,6,25,-0.563
0.058,-0.136,0.959,0.622,12.242,53.956,17,62.6,15.438,59.787,0.08,183,7.956,6,25,0.44
0.055,-0.136,0.956,0.622,12.11,53.56,17,62.6,15.438,59.787,0.078,176,7.736,6,25,0.51
0.051,-0.14,0.956,0.622,12.066,53.64,17,62.6,15.438,59.787,0.077,175,7.868,6,25,0.475
0.058,-1.138,0.952,0.622,12.11,53.877,17.062,62.713,15.438,59.787,0.076,175,7.692,6,25,0.475
0.062,-0.14,0.956,0.167,-33.824,-28.804,17.062,62.713,15.438,59.787,0.056,132,6.11,6,25,-0.404
0.058,-0.136,0.956,0.169,-33.385,-28.092,17.062,62.713,15.438,59.787,0.061,133,5.846,6,25,-0.281
0.058,-0.14,0.956,0.622,12.11,53.64,17.062,62.713,15.438,59.787,0.076,175,7.912,6,25,0.475
0.051,-0.136,0.971,0.622,12.154,53.719,17.062,62.713,15.438,59.787,0.08,184,7.824,6,25,0.492
0.062,-0.14,0.948,0.622,12.066,53.719,17.062,62.713,15.438,59.787,0.076,178,7.648,6,25,0.475
0.062,-0.136,0.956,0.626,12.505,54.589,17.062,62.713,15.438,59.787,0.08,183,8.088,6,25,0.51
0.055,-0.14,0.956,0.627,12.637,54.668,17.062,62.713,15.438,59.787,0.076,176,7.78,6,25,0.387
0.055,-0.136,0.959,0.056,-44.637,-48.426,17.062,62.713,15.438,59.787,0.055,120,5.363,6,25,-0.492
0.058,-0.14,0.959,0.625,12.505,54.589,17.062,62.713,15.438,59.787,0.082,190,8.396,6,25,0.475
0.055,-0.14,0.956,0.626,12.462,54.51,17.062,62.713,15.438,59.787,0.079,180,7.736,6,25,0.457
0.062,-0.136,0.959,0.625,12.593,54.589,17.062,62.713,15.438,59.787,0.08,184,8,6,25,0.51
0.058,-0.136,0.952,0.625,12.505,54.431,17.062,62.713,15.438,59.787,0.074,168,7.385,6,25,0.51
0.055,-0.14,0.952,0.095,-40.637,-41.305,17.062,62.713,15.438,59.787,0.055,128,5.363,6,25,-0.545
0.055,-0.136,0.956,0.625,12.462,54.431,17.062,62.713,15.438,59.787,0.085,191,8.484,6,25,0.475
0.058,-0.14,0.956,0.095,-40.637,-41.226,17.062,62.713,15.438,59.787,0.057,130,5.758,6,25,-0.457
0.062,-0.14,0.959,0.097,-40.549,-41.305,17.062,62.713,15.438,59.787,0.058,131,5.758,6,25,-0.527
0.058,-0.14,0.956,0.098,-40.242,-40.435,17.062,62.713,15.438,59.787,0.062,137,6.022,6,25,-0.44
0.055,-0.14,1.95,0.626,12.505,54.431,17.062,62.713,15.438,59.787,0.077,174,7.78,6,25,0.422
0.062,-0.136,0.952,0.003,-48.066,-57.288,17.062,62.713,15.438,59.787,0.055,127,5.407,6,25,-0.316
0.058,-0.14,0.956,0.006,-49.341,-56.892,17.062,62.713,15.438,59.787,0.056,133,5.67,6,25,-0.387
0.055,-0.14,0.959,0.006,-49.516,-56.813,17.062,62.713,15.438,59.787,0.058,129,5.802,6,25,-0.527
0.058,-0.14,0.948,0.007,-49.297,-56.813,17.062,62.713,15.438,59.787,0.056,120,5.407,6,25,-0.404
0.058,-0.14,0.959,0.006,-49.429,-56.892,17.062,62.713,15.438,59.787,0.057,133,5.934,6,25,-0.422
0.058,-0.14,0.959,0.625,12.549,54.589,17.062,62.713,15.438,59.787,0.078,173,7.736,6,25,0.475
0.058,-0.14,0.956,0.036,-46.484,-51.512,17.062,62.713,15.438,59.787,0.059,127,5.626,6,25,-0.51
0.058,-0.136,0.952,0.043,-46.22,-51.67,17.062,62.713,15.438,59.787,0.058,133,5.538,6,25,-0.492
0.055,-0.14,0.948,0.034,-46.571,-51.67,17.062,62.713,15.438,59.787,0.056,125,5.319,6,25,-0.51
0.055,-0.14,0.963,0.622,12.11,53.719,17.062,62.713,15.438,59.787,0.08,185,7.912,6,25,0.369
0.058,-0.14,0.952,0.037,-46.352,-51.591,17.062,62.713,15.438,59.787,0.059,132,5.846,6,25,-0.44
0.055,-0.14,0.952,0.622,12.11,53.798,17.062,62.713,15.438,59.787,0.08,178,7.868,6,25,0.545
0.055,-0.14,0.952,0.622,12.11,53.798,17.062,62.713,15.438,59.787,0.08,178,7.868,6,25,0.545
0.058,-0.14,0.956,0.621,12.154,53.798,17.062,62.713,15.438,59.787,0.076,171,7.604,6,25,0.422
0.055,-0.14,0.952,0.622,12.154,53.877,17.062,62.713,15.438,59.787,0.078,175,7.56,6,25,0.457
0.055,-0.14,0.956,0.622,12.154,53.64,17.062,62.713,15.438,59.787,0.076,168,7.473,6,25,0.369
0.051,-0.14,0.956,0.622,12.198,53.719,17.062,62.713,15.438,59.787,0.081,185,7.912,6,25,0.457
0.055,-0.14,0.956,0.003,-49.736,-57.604,17.062,62.713,15.438,59.787,0.052,120,5.407,6,25,-0.492
0.058,-0.136,0.956,0.002,-49.736,-57.604,17.062,62.713,15.438,59.787,0.064,139,6.286,6,25,-0.457
0.058,-0.14,0.952,0.626,12.593,54.668,17.062,62.713,15.438,59.787,0.075,175,7.692,6,25,0.404
0.058,-0.14,0.956,0.626,12.593,54.51,17.062,62.713,15.438,59.787,0.08,180,7.824,8,34,0.404
0.058,-0.136,0.956,0.625,12.462,54.431,17.062,62.713,15.438,59.787,0.076,178,7.868,8,34,0.475
0.058,-0.14,0.956,0.626,12.549,54.51,17.062,62.713,15.438,59.787,0.084,190,8.352,8,34,0.457
0.058,-0.136,0.959,0.011,-48.989,-56.18,17.062,62.713,15.438,59.787,0.056,125,5.67,8,34,-0.527
0.058,-0.14,0.952,0.626,12.549,54.589,17.062,62.713,15.438,59.787,0.081,188,8.176,8,34,0.44
0.062,-0.14,0.959,0.627,12.593,54.668,17.062,62.713,15.438,59.787,0.077,175,7.78,8,34,0.44
0.058,-0.14,0.956,0.626,12.549,54.747,17.062,62.713,15.438,59.787,0.08,181,7.912,8,34,0.457
0.055,-0.14,0.956,0.627,12.769,54.826,17.062,62.713,15.438,59.787,0.087,196,8.571,8,34,0.44
0.062,-0.136,0.956,0.622,12.154,53.798,17.062,62.713,15.438,59.787,0.079,178,7.78,8,34,0.475
0.055,-0.14,0.956,0.129,-37.341,-35.53,17.062,62.713,15.438,59.787,0.06,136,5.846,8,34,-0.352
0.055,-0.14,0.956,0.129,-37.341,-35.53,17.062,62.713,15.438,59.787,0.06,136,5.846,8,34,-0.352
0.055,-0.14,0.944,0.622,12.11,53.798,17.062,62.713,15.438,59.787,0.078,178,7.78,8,34,0.492
0.058,-0.14,1.946,0.622,12.11,53.719,17.906,64.231,15.438,59.787,0.087,195,8.615,8,34,0.422
0.055,-0.14,0.959,0.621,12.154,53.798,17.906,64.231,15.438,59.787,0.081,187,8.044,8,34,0.422
0.058,-0.14,0.956,0.623,12.154,53.877,17.906,64.231,15.438,59.787,0.079,185,8.22,8,34,0.44
0.058,-0.14,0.956,0.034,-46.747,-52.145,17.906,64.231,15.438,59.787,0.057,129,5.495,8,34,-0.51
0.058,-0.14,0.952,0.623,12.154,53.798,17.906,64.231,15.438,59.787,0.074,164,7.516,8,34,0.475
0.062,-0.14,0.959,0.034,-46.791,-52.462,17.906,64.231,15.438,59.787,0.063,138,6.242,8,34,-0.475
0.058,-0.14,0.952,0.033,-46.703,-51.987,17.906,64.231,15.438,59.787,0.062,140,6.022,8,34,-0.51
0.055,-0.14,0.952,0.034,-46.703,-51.829,17.906,64.231,15.438,59.787,0.055,123,5.231,8,34,-0.545
0.062,-0.14,0.952,0.626,12.549,54.431,17.906,64.231,15.438,59.787,0.085,194,8.659,8,34,0.51
0.058,-0.14,0.952,0.002,-49.824,-57.684,17.906,64.231,15.438,59.787,0.065,152,6.813,8,34,-0.422
0.055,-0.14,0.956,0.002,-49.824,-57.684,17.906,64.231,15.438,59.787,0.059,139,6.022,8,34,-0.422
0.055,-0.136,0.952,0.627,12.681,54.747,17.906,64.231,15.438,59.787,0.092,205,9.099,8,34,0.422
0.051,-0.14,0.952,0.002,-49.824,-57.684,17.906,64.231,15.438,59.787,0.058,132,5.802,8,34,-0.475
0.055,-0.14,0.959,0.625,12.549,54.589,17.906,64.231,15.438,59.787,0.091,207,9.099,8,34,0.457
0.058,-0.144,0.94,0.627,12.593,54.589,17.906,64.231,15.438,59.787,0.077,177,7.824,8,34,0.457
0.058,-0.14,1.95,0.162,-33.868,-29.121,17.906,64.231,15.438,59.787,0.055,126,5.538,8,34,-0.387
0.058,-0.14,0.952,0.625,12.505,54.431,17.906,64.231,15.438,59.787,0.076,173,7.648,8,34,0.387
0.055,-0.14,0.952,0.626,12.549,54.431,17.906,64.231,15.438,59.787,0.087,200,8.703,8,34,0.404
0.055,-0.14,0.956,0.626,12.549,54.431,17.906,64.231,15.438,59.787,0.077,178,7.736,8,34,0.457
0.055,-0.14,0.952,0.625,12.593,54.51,17.906,64.231,15.438,59.787,0.08,185,8.176,8,34,0.404
0.055,-0.14,0.959,0.175,-32.593,-26.589,17.906,64.231,15.438,59.787,0.073,160,7.297,8,34,-0.352
0.062,-0.14,0.956,0.626,12.637,54.668,17.906,64.231,15.438,59.787,0.08,178,7.824,8,34,0.492
0.058,-0.14,0.956,0.627,12.593,54.668,17.906,64.231,15.438,59.787,0.085,191,8.484,8,34,0.422
0.055,-0.14,0.952,0.625,12.418,54.431,17.906,64.231,15.438,59.787,0.082,180,8.22,8,34,0.44
0.058,-0.14,0.952,0.626,12.637,54.589,17.906,64.231,15.438,59.787,0.082,182,8.044,8,34,0.44
0.066,-0.136,0.948,0.625,12.549,54.51,17.906,64.231,15.438,59.787,0.082,181,8.088,8,34,0.44
0.058,-0.14,0.948,0.02,-48.022,-54.44,17.906,64.231,15.438,59.787,0.056,124,5.407,8,34,-0.527
0.062,-0.132,0.944,0.622,12.022,53.798,17.906,64.231,15.438,59.787,0.084,191,8.396,8,34,0.475
0.058,-0.136,0.956,0.622,12.11,53.64,17.906,64.231,15.438,59.787,0.078,177,7.604,8,34,0.369
0.058,-0.14,0.952,0.622,12.198,53.719,17.906,64.231,15.438,59.787,0.075,170,7.56,8,34,0.44
0.055,-0.14,0.948,0.622,12.11,53.798,17.906,64.231,15.438,59.787,0.077,177,7.736,8,34,0.492
0.055,-0.14,0.956,0.623,12.242,53.956,17.906,64.231,15.438,59.787,0.076,172,7.692,8,34,0.457
0.058,-0.14,0.956,0.121,-38.088,-36.796,17.906,64.231,15.438,59.787,0.064,145,6.242,8,34,-0.492
0.058,-0.14,0.959,0.622,12.11,53.719,17.906,64.231,15.438,59.787,0.08,179,7.868,8,34,0.44
0.058,-0.136,0.952,0.622,12.242,53.877,17.906,64.231,15.438,59.787,0.078,172,7.824,8,34,0.422
0.058,-0.14,0.956,0.621,12.154,53.877,17.906,64.231,15.438,59.787,0.078,172,7.736,8,34,0.422
0.055,-0.144,0.952,0.625,12.505,54.589,17.906,64.231,15.438,59.787,0.075,171,7.78,8,34,0.44
0.062,-0.144,0.959,0.626,12.549,54.431,17.906,64.231,15.438,59.787,0.08,178,7.956,8,34,0.44
0.058,-0.14,0.952,0.147,-35.495,-32.127,17.906,64.231,15.438,59.787,0.061,138,6.066,8,34,-0.193
0.058,-0.14,0.952,0.625,12.374,54.431,17.906,64.231,15.438,59.787,0.078,180,7.912,8,34,0.492
0.058,-0.14,0.956,0.624,12.462,54.431,17.906,64.231,15.438,59.787,0.086,193,8.484,8,34,0.457
0.058,-0.14,0.956,0.626,12.593,54.589,17.906,64.231,15.438,59.787,0.076,174,7.648,8,34,0.44
0.058,-0.14,0.956,0.626,12.593,54.589,17.906,64.231,15.438,59.787,0.076,174,7.648,8,34,0.44
0.058,-0.14,0.952,0.626,12.549,54.51,17.906,64.231,15.438,59.787,0.074,168,7.516,8,34,0.44
0.055,-0.14,0.956,0.626,12.418,54.352,17.906,64.231,15.406,59.731,0.082,186,8.176,8,34,0.51
0.058,-0.136,0.956,0.093,-40.901,-41.701,17.906,64.231,15.406,59.731,0.056,130,5.714,8,34,-0.527
0.058,-0.136,0.959,0.085,-41.56,-43.046,17.906,64.231,15.406,59.731,0.058,133,6.022,8,34,-0.545
0.058,-0.14,0.952,0.089,-41.209,-42.334,17.906,64.231,15.406,59.731,0.061,138,5.978,8,34,-0.44
0.058,-0.136,1.95,0.622,12.022,53.719,17.906,64.231,15.406,59.731,0.077,174,7.692,8,34,0.492
0.058,-0.14,1.954,0.007,-49.297,-56.655,17.906,64.231,15.406,59.731,0.057,130,5.714,5,21,-0.475
0.058,-0.14,0.956,0.622,12.242,54.035,17.812,64.062,15.406,59.731,0.074,169,7.473,5,21,0.457
0.055,-0.136,0.956,0.622,12.066,53.64,17.812,64.062,15.406,59.731,0.078,176,7.78,5,21,0.404
0.051,-0.136,0.952,0.622,12.154,53.719,17.812,64.062,15.406,59.731,0.083,191,8.308,5,21,0.44
0.055,-0.144,0.944,0.622,12.154,53.877,17.812,64.062,15.406,59.731,0.078,179,7.824,5,21,0.422
0.062,-0.14,0.956,0.623,12.154,53.877,17.812,64.062,15.406,59.731,0.076,176,8,5,21,0.422
0.055,-0.14,0.94,0.002,-49.78,-57.604,17.812,64.062,15.406,59.731,0.056,128,5.67,5,21,-0.369
0.062,-0.14,0.952,0.626,12.549,54.589,17.812,64.062,15.406,59.731,0.08,185,8.132,5,21,0.457
0.062,-0.14,0.952,0.626,12.549,54.589,17.812,64.062,15.406,59.731,0.08,185,8.132,5,21,0.457
0.058,-0.14,0.952,0.625,12.505,54.51,17.812,64.062,15.406,59.731,0.081,187,8.176,5,21,0.387
0.055,-0.136,0.952,0.626,12.593,54.51,17.812,64.062,15.406,59.731,0.08,177,7.824,5,21,0.44
0.055,-0.14,0.956,0.625,12.549,54.668,17.812,64.062,15.406,59.731,0.081,187,8.264,5,21,0.457
0.058,-0.14,0.956,0.625,12.505,54.431,17.812,64.062,15.406,59.731,0.079,183,7.868,5,21,0.422
0.058,-0.14,0.952,0.626,12.593,54.747,17.812,64.062,15.406,59.731,0.08,183,8.044,5,21,0.475
0.058,-0.14,0.952,0.626,12.593,54.668,17.812,64.062,15.406,59.731,0.079,175,7.824,5,21,0.492
0.058,-0.136,0.952,0.627,12.637,54.51,17.812,64.062,15.406,59.731,0.076,172,7.56,5,21,0.422
0.058,-0.14,0.956,0.627,12.681,54.668,17.812,64.062,15.406,59.731,0.079,183,7.824,5,21,0.51
0.055,-0.144,0.956,0.122,-38.044,-36.875,17.812,64.062,15.406,59.731,0.056,133,5.495,5,21,-0.369
0.058,-0.14,0.956,0.124,-37.692,-36.084,17.812,64.062,15.406,59.731,0.062,148,6.462,5,21,-0.387
0.055,-0.136,0.956,0.121,-38.264,-37.112,17.812,64.062,15.406,59.731,0.06,130,5.802,5,21,-0.316
0.055,-0.136,0.952,0.123,-37.824,-35.925,17.812,64.062,15.406,59.731,0.058,125,5.714,5,21,-0.404
0.058,-0.14,0.959,0.123,-37.956,-36.479,17.812,64.062,15.406,59.731,0.062,148,6.286,5,21,-0.404
0.058,-0.14,0.956,0.118,-38.264,-37.112,17.812,64.062,15.406,59.731,0.064,146,6.374,5,21,-0.387
0.058,-0.14,0.952,0.012,-48.769,-55.626,17.812,64.062,15.406,59.731,0.059,129,5.846,5,21,-0.422
0.058,-0.14,0.956,0.626,12.593,54.589,17.812,64.062,15.406,59.731,0.078,177,7.78,5,21,0.545
0.055,-0.14,0.959,0.013,-48.681,-55.785,17.812,64.062,15.406,59.731,0.055,125,5.451,5,21,-0.492
0.058,-0.14,0.959,0.012,-48.769,-55.626,17.812,64.062,15.406,59.731,0.063,140,6.198,5,21,-0.545
0.055,-0.14,0.952,0.012,-48.857,-55.864,17.812,64.062,15.406,59.731,0.057,130,5.582,5,21,-0.545
0.055,-0.14,0.959,0.622,12.066,53.719,17.812,64.062,15.406,59.731,0.078,177,8.088,5,21,0.387
0.058,-0.14,0.956,0.029,-47.143,-53.015,17.812,64.062,15.406,59.731,0.064,149,6.725,5,21,-0.545
0.058,-0.14,0.956,0.029,-47.187,-52.857,17.812,64.062,15.406,59.731,0.06,136,5.758,5,21,-0.44
0.062,-0.14,0.956,0.034,-47.187,-53.095,17.812,64.062,15.406,59.731,0.055,121,5.407,5,21,-0.58
0.055,-0.14,0.959,0.031,-47.099,-52.857,17.812,64.062,15.406,59.731,0.062,140,6.198,5,21,-0.475
0.062,-0.136,0.952,0.028,-47.187,-52.936,17.812,64.062,15.406,59.731,0.06,133,5.67,5,21,-0.475
0.062,-0.136,0.952,0.622,12.11,53.877,17.812,64.062,15.406,59.731,0.082,191,8.571,5,21,0.422
0.062,-0.14,0.956,0.007,-49.121,-56.576,17.812,64.062,15.406,59.731,0.059,137,5.846,5,21,-0.44
0.058,-0.14,0.952,0.621,12.198,53.877,17.812,64.062,15.406,59.731,0.089,202,8.923,5,21,0.545
0.058,-0.14,0.952,0.627,12.593,54.747,17.812,64.062,15.406,59.731,0.079,178,7.736,5,21,0.492
0.058,-0.14,0.956,0.625,12.505,54.51,17.812,64.062,15.406,59.731,0.075,170,7.341,5,21,0.475
0.058,-0.14,0.956,0.626,12.549,54.589,17.812,64.062,15.406,59.731,0.081,182,8.132,5,21,0.44
0.058,-0.136,0.952,0.002,-49.78,-56.497,17.812,64.062,15.406,59.731,0.056,131,5.582,5,21,-0.492
0.058,-0.136,0.956,0.002,-49.824,-57.604,17.812,64.062,15.406,59.731,0.061,144,6.11,5,21,-0.475
0.055,-0.14,0.948,0.625,12.462,54.352,17.812,64.062,15.406,59.731,0.083,186,8.264,5,21,0.44
0.058,-0.14,0.944,0.625,12.549,54.51,17.812,64.062,15.406,59.731,0.076,173,7.78,5,21,0.492
0.062,-0.14,0.959,0.627,12.637,54.668,17.812,64.062,15.406,59.731,0.08,181,7.912,5,21,0.387
0.055,-0.136,0.956,0.626,12.505,54.51,17.812,64.062,15.406,59.731,0.079,182,7.956,5,21,0.422
0.062,-0.136,0.952,0.01,12.549,54.589,17.812,64.062,15.406,59.731,0.083,189,8.22,5,21,0.44
0.058,-0.136,0.956,0.622,12.11,53.719,17.812,64.062,15.406,59.731,0.081,187,8.396,5,21,0.404
0.055,-0.136,0.952,0.622,12.154,53.877,17.812,64.062,15.406,59.731,0.079,177,7.736,5,21,0.492
0.055,-0.136,0.952,0.622,12.154,53.877,17.812,64.062,15.406,59.731,0.079,177,7.736,5,21,0.492
0.058,-0.144,-0.039,0.622,12.198,53.956,17.812,64.062,15.406,59.731,0.079,173,7.824,5,21,0.563
0.055,-0.14,0.952,0.62,12.11,53.877,17.812,64.062,15.406,59.731,0.083,183,8.22,5,21,0.492
0.058,-0.14,0.956,0.08,-42.132,-43.679,17.906,64.231,15.406,59.731,0.058,135,5.582,5,21,-0.457
0.058,-0.14,0.959,0.621,12.066,53.719,17.906,64.231,15.406,59.731,0.079,180,8,5,21,0.475
0.055,-0.136,0.956,0.622,12.066,53.719,17.906,64.231,15.406,59.731,0.077,180,8.088,5,21,0.492
0.058,-0.14,0.956,0.622,12.066,53.64,17.906,64.231,15.406,59.731,0.085,198,8.615,5,21,0.44
0.058,-0.136,0.967,0.622,12.242,53.956,17.906,64.231,15.406,59.731,0.081,183,8.088,5,21,0.422
0.055,-0.14,0.956,0.622,12.154,53.798,17.906,64.231,15.406,59.731,0.08,177,7.912,5,21,0.387
0.058,-0.136,0.948,0.032,-49.341,-56.655,17.906,64.231,15.406,59.731,0.061,135,6.11,5,21,-0.492
0.062,-0.14,0.959,0.007,-49.253,-56.734,17.906,64.231,15.406,59.731,0.06,132,5.978,7,30,-0.404
0.055,-0.14,0.959,0.007,-49.341,-56.892,17.906,64.231,15.406,59.731,0.056,129,5.67,7,30,-0.545
0.058,-0.14,0.952,0.009,-49.209,-56.734,17.906,64.231,15.406,59.731,0.059,131,5.67,7,30,-0.51
0.055,-0.136,0.948,0.006,-49.341,-56.813,17.906,64.231,15.406,59.731,0.056,130,5.802,7,30,-0.492
0.058,-0.136,0.956,0.627,12.549,54.51,17.906,64.231,15.406,59.731,0.085,197,8.571,7,30,0.44
0.062,-0.14,0.959,0.149,-35.626,-32.048,17.906,64.231,15.406,59.731,0.06,131,5.89,7,30,-0.299
0.058,-0.14,0.936,0.625,12.549,54.589,17.906,64.231,15.406,59.731,0.079,179,7.868,7,30,0.369
0.058,-0.144,0.956,0.151,-35.055,-31.336,17.906,64.231,15.406,59.731,0.055,125,5.319,7,30,-0.316
0.055,-0.136,0.959,0.625,12.505,54.51,17.906,64.231,15.406,59.731,0.08,186,8.088,7,30,0.44
0.058,-0.14,0.959,0.148,-35.319,-31.495,17.906,64.231,15.406,59.731,0.059,134,5.89,7,30,-0.246
0.058,-0.14,0.956,0.626,12.505,54.431,17.906,64.231,15.406,59.731,0.082,180,7.956,7,30,0.44
0.055,-0.14,0.956,0.062,-43.758,-46.844,17.906,64.231,15.406,59.731,0.055,126,5.67,7,30,-0.545
0.055,-0.14,0.956,0.062,-43.758,-46.844,17.906,64.231,15.406,59.731,0.055,126,5.67,7,30,-0.545
0.058,-0.14,0.956,0.625,12.549,54.431,17.906,64.231,15.406,59.731,0.081,180,8.132,7,30,0.352
0.058,-0.14,0.956,0.625,12.549,54.431,17.906,64.231,15.406,59.731,0.081,180,8.132,7,30,0.352
0.058,-0.14,0.956,0.625,12.462,54.431,17.906,64.231,15.406,59.731,0.079,179,7.648,7,30,0.475
0.058,-0.14,0.956,0.039,-46.088,-50.879,17.906,64.231,15.406,59.731,0.059,130,5.802,7,30,-0.457
0.055,-0.136,1.954,0.044,-45.736,-50.484,17.906,64.231,15.406,59.731,0.06,134,5.89,7,30,-0.563
0.062,-0.14,0.956,0.626,12.593,54.589,17.906,64.231,15.406,59.731,0.08,179,7.912,7,30,0.44
0.058,-0.14,0.952,0.622,12.11,53.64,17.906,64.231,15.406,59.731,0.079,173,7.956,7,30,0.58
0.058,-0.14,0.959,0.621,12.11,53.798,17.906,64.231,15.406,59.731,0.083,181,7.824,7,30,0.44
0.058,-0.14,0.956,0.621,12.11,53.719,17.906,64.231,15.406,59.731,0.08,183,7.648,7,30,0.457
0.055,-0.14,0.956,0.008,-49.121,-56.418,17.906,64.231,15.406,59.731,0.055,125,5.319,7,30,-0.44
0.058,-0.14,0.956,0.622,12.066,53.798,17.906,64.231,15.406,59.731,0.081,183,7.912,7,30,0.457
0.058,-0.14,0.959,0.622,12.11,53.719,17.906,64.231,15.406,59.731,0.08,181,7.824,7,30,0.545
0.058,-0.14,0.959,0.623,12.154,53.719,17.906,64.231,15.406,59.731,0.078,179,7.868,7,30,0.44
0.062,-0.14,0.956,0.622,12.066,53.719,17.906,64.231,15.406,59.731,0.076,180,7.516,7,30,0.545
0.058,-0.14,0.956,0.623,12.198,53.719,17.906,64.231,15.406,59.731,0.077,174,7.736,7,30,0.492
0.058,-0.14,0.956,0.013,-48.857,-55.785,17.906,64.231,15.406,59.731,0.057,131,5.67,7,30,-0.457
0.055,-0.136,0.94,0.625,12.505,54.589,17.906,64.231,15.406,59.731,0.078,178,7.824,7,30,0.457
0.055,-0.136,0.952,0.625,12.505,54.51,17.906,64.231,15.406,59.731,0.079,177,8.044,7,30,0.527
0.058,-0.14,0.948,0.625,12.418,54.273,17.906,64.231,15.406,59.731,0.084,193,8.44,7,30,0.404
0.055,-0.136,0.956,0.625,12.462,54.431,17.906,64.231,15.406,59.731,0.08,176,7.78,7,30,0.492
0.055,-0.14,0.952,0.626,12.505,54.431,17.906,64.231,15.406,59.731,0.08,183,8.132,7,30,0.475
0.051,-0.136,0.956,0.626,12.549,54.51,17.906,64.231,15.406,59.731,0.079,178,7.868,7,30,0.44
0.058,-0.14,0.952,0.627,12.593,54.51,17.906,64.231,15.406,59.731,0.08,179,7.824,7,30,0.44
0.058,-0.14,0.952,0.625,12.549,54.51,17.906,64.231,15.406,59.731,0.077,181,7.78,7,30,0.475
0.051,-0.14,0.952,0.626,12.593,54.431,17.906,64.231,15.406,59.731,0.078,175,7.78,7,30,0.475
0.058,-0.14,0.956,0.626,12.549,54.668,17.906,64.231,15.406,59.731,0.087,195,8.747,7,30,0.387
0.058,-0.14,0.952,0.623,12.242,53.798,17.906,64.231,15.406,59.731,0.08,180,7.956,7,30,0.404
0.055,-0.14,0.956,0.015,-48.549,-54.993,17.906,64.231,15.406,59.731,0.06,130,5.758,7,30,-0.492
0.055,-0.14,0.956,0.015,-48.374,-55.152,17.906,64.231,15.406,59.731,0.056,126,5.67,7,30,-0.527
0.051,-0.14,0.944,0.016,-48.374,-55.152,17.906,64.231,15.406,59.731,0.056,135,5.846,7,30,-0.563
0.058,-0.14,0.952,0.015,-48.462,-55.152,17.906,64.231,15.406,59.731,0.058,134,6.242,7,30,-0.651
0.058,-0.14,0.952,0.016,-48.462,-55.231,18.312,64.963,15.406,59.731,0.061,143,6.022,7,30,-0.545
0.058,-0.136,-0.039,0.622,12.11,53.719,18.312,64.963,15.406,59.731,0.077,173,7.209,7,30,0.492
0.055,-0.144,0.956,0.004,-49.604,-57.288,18.312,64.963,15.406,59.731,0.054,129,5.626,7,30,-0.527
0.058,-0.14,0.956,0.622,12.066,53.798,18.312,64.963,15.406,59.731,0.075,172,7.516,7,30,0.422
0.058,-0.136,0.956,0.623,12.242,53.877,18.312,64.963,15.406,59.731,0.076,175,7.56,7,30,0.44
0.058,-0.14,0.956,0.627,12.593,54.51,18.312,64.963,15.406,59.731,0.084,191,8.44,7,30,0.457
0.055,-0.14,0.956,0.626,12.549,54.51,18.312,64.963,15.406,59.731,0.077,172,7.429,7,30,0.492
0.058,-0.14,0.956,0.104,-39.626,-39.407,18.312,64.963,15.406,59.731,0.066,148,6.462,7,30,-0.51
0.062,-0.14,0.956,0.102,-39.714,-39.565,18.312,64.963,15.406,59.731,0.062,143,6.33,7,30,-0.404
0.062,-0.14,0.956,0.102,-39.714,-39.565,18.312,64.963,15.406,59.731,0.062,143,6.33,7,30,-0.404
0.055,-0.14,0.956,0.627,12.505,54.589,18.312,64.963,15.406,59.731,0.077,172,7.692,7,30,0.44
0.062,-0.136,0.956,0.105,-39.67,-39.881,18.312,64.963,15.406,59.731,0.061,141,6.066,7,30,-0.492
0.058,-0.144,0.959,0.627,12.637,54.747,18.312,64.963,15.406,59.731,0.081,184,8.088,7,30,0.404
0.058,-0.14,0.959,0.625,12.593,54.668,18.312,64.963,15.406,59.731,0.075,171,7.604,7,30,0.457
0.055,-0.14,0.959,0.024,-47.538,-53.648,18.312,64.963,15.406,59.731,0.057,129,5.802,7,30,-0.563
0.055,-0.14,0.944,0.625,12.418,54.273,18.312,64.963,15.406,59.731,0.076,174,7.648,7,30,0.404
0.062,-0.14,0.952,0.625,12.462,54.51,18.312,64.963,15.406,59.731,0.083,187,8.22,7,30,0.404
0.055,-0.136,0.952,0.627,12.593,54.747,18.312,64.963,15.406,59.731,0.074,170,7.385,9,38,0.44
0.062,-0.14,0.948,0.626,12.505,54.668,18.312,64.963,15.406,59.731,0.079,182,7.912,9,38,0.44
0.055,-0.14,0.956,0.002,-49.824,-57.684,18.312,64.963,15.406,59.731,0.056,129,5.626,9,38,-0.404
0.055,-0.14,0.956,0.002,-49.78,-57.525,18.312,64.963,15.406,59.731,0.057,123,5.451,9,38,-0.51
0.055,-0.14,0.956,0.002,-49.78,-57.525,18.312,64.963,15.406,59.731,0.057,123,5.451,9,38,-0.51
0.058,-0.14,0.959,0.626,12.549,54.51,18.312,64.963,15.406,59.731,0.082,186,8.088,9,38,0.387
0.058,-0.14,0.956,0.625,12.549,54.589,18.312,64.963,15.406,59.731,0.086,195,8.571,9,38,0.422
0.055,-0.14,0.94,0.626,12.637,54.668,18.312,64.963,15.406,59.731,0.08,180,8.044,9,38,0.422
0.058,-0.14,0.956,0.108,-39.407,-39.011,18.312,64.963,15.406,59.731,0.053,125,5.451,9,38,-0.527
0.062,-0.132,0.956,0.107,-39.495,-39.011,18.312,64.963,15.406,59.731,0.062,151,6.505,9,38,-0.352
0.058,-0.136,0.959,0.11,-38.967,-38.299,18.312,64.963,15.406,59.731,0.061,132,6.066,9,38,-0.316
0.058,-0.14,0.959,0.112,-39.055,-38.22,18.312,64.963,15.406,59.731,0.061,140,6.11,9,38,-0.387
0.058,-0.14,0.952,0.109,-39.363,-39.407,18.312,64.963,15.406,59.731,0.064,144,6.242,9,38,-0.545
0.055,-0.136,0.956,0.623,12.242,53.956,18.312,64.963,15.406,59.731,0.08,176,8,9,38,0.387
0.058,-0.144,0.956,0.009,-49.121,-56.497,18.312,64.963,15.406,59.731,0.059,136,5.846,9,38,-0.527
0.058,-0.14,0.948,0.011,-48.945,-56.022,18.312,64.963,15.406,59.731,0.062,136,6.154,9,38,-0.51
0.058,-0.14,0.956,0.01,-48.989,-56.101,18.312,64.963,15.406,59.731,0.062,142,6.242,9,38,-0.545
0.058,-0.14,0.956,0.01,-48.989,-56.18,18.312,64.963,15.406,59.731,0.056,125,5.538,9,38,-0.404
0.058,-0.14,0.956,0.01,-48.989,-56.18,18.312,64.963,15.406,59.731,0.056,125,5.538,9,38,-0.404
0.058,-0.136,0.956,0.625,12.593,54.668,18.312,64.963,15.406,59.731,0.08,182,7.868,9,38,0.545
0.055,-0.14,0.948,0.072,-42.835,-44.787,18.312,64.963,15.406,59.731,0.069,151,6.637,9,38,-0.422
0.058,-0.14,0.956,0.626,12.505,54.352,18.312,64.963,15.406,59.731,0.088,198,8.835,9,38,0.422
0.058,-0.14,0.956,0.625,12.505,54.352,18.312,64.963,15.406,59.731,0.074,176,7.473,9,38,0.44
0.058,-0.144,0.956,0.625,12.549,54.51,18.312,64.963,15.406,59.731,0.077,180,7.736,9,38,0.457
0.058,-0.132,0.944,0.626,12.505,54.589,18.312,64.963,15.406,59.731,0.078,183,7.868,9,38,0.457
0.055,-0.136,0.952,0.014,-48.593,-55.468,18.312,64.963,15.406,59.731,0.055,129,5.582,9,38,-0.492
0.055,-0.136,0.956,0.013,-48.681,-55.468,18.312,64.963,15.406,59.731,0.06,136,6.066,9,38,-0.369
0.062,-0.14,0.944,0.015,-48.549,-55.389,18.312,64.963,15.406,59.731,0.059,137,6.022,9,38,-0.51
0.058,-0.14,0.956,0.014,-48.593,-55.547,18.312,64.963,15.375,59.675,0.058,129,5.626,9,38,-0.475
0.058,-0.14,0.956,0.013,-48.418,-55.31,18.312,64.963,15.375,59.675,0.055,127,5.451,9,38,-0.545
0.058,-0.144,0.952,0.622,12.066,53.798,18.312,64.963,15.375,59.675,0.076,177,7.824,9,38,0.422
0.058,-0.144,0.956,0.155,-34.44,-30.466,18.312,64.963,15.375,59.675,0.064,137,6.418,9,38,-0.422
0.058,-0.14,0.952,0.623,12.198,53.956,18.312,64.963,15.375,59.675,0.076,167,7.429,9,38,0.404
0.055,-0.14,0.959,0.622,12.066,53.719,18.594,65.469,15.375,59.675,0.08,179,8.176,9,38,0.369
0.055,-0.132,0.944,0.622,12.11,53.64,18.594,65.469,15.375,59.675,0.081,179,8.044,9,38,0.51
0.055,-0.136,0.952,0.622,12.154,53.956,18.594,65.469,15.375,59.675,0.08,183,8.132,9,38,0.422
0.055,-0.136,0.952,0.623,12.154,53.719,18.594,65.469,15.375,59.675,0.084,187,8.132,9,38,0.369
0.055,-0.14,0.956,0.181,-32.198,-26.352,18.594,65.469,15.375,59.675,0.063,141,6.374,9,38,-0.281
0.058,-0.14,0.956,0.622,12.11,53.64,18.594,65.469,15.375,59.675,0.077,184,8.044,9,38,0.492
0.058,-0.148,0.956,0.622,12.286,54.114,18.594,65.469,15.375,59.675,0.08,179,8,9,38,0.527
0.058,-0.14,0.94,0.625,12.549,54.51,18.594,65.469,15.375,59.675,0.076,174,7.736,9,38,0.404
0.055,-0.14,0.948,0.627,12.593,54.668,18.594,65.469,15.375,59.675,0.079,178,7.692,9,38,0.422
0.058,-0.14,0.952,0.625,12.505,54.431,18.594,65.469,15.375,59.675,0.081,184,8.22,9,38,0.352
0.058,-0.14,0.956,0.007,-49.341,-56.892,18.594,65.469,15.375,59.675,0.057,125,5.451,9,38,-0.475
0.055,-0.136,0.952,0.626,12.549,54.589,18.594,65.469,15.375,59.675,0.08,176,7.868,9,38,0.475
0.058,-0.144,0.948,0.626,12.505,54.51,18.594,65.469,15.375,59.675,0.077,175,7.604,9,38,0.422
0.058,-0.14,0.948,0.626,12.637,54.51,18.594,65.469,15.375,59.675,0.079,180,7.912,9,38,0.492
0.062,-0.14,0.948,0.626,12.725,54.747,18.594,65.469,15.375,59.675,0.08,178,7.912,9,38,0.475
0.058,-0.14,0.956,0.629,12.725,54.826,18.594,65.469,15.375,59.675,0.077,178,7.736,9,38,0.44
0.058,-0.136,0.948,0.018,-48.154,-54.598,18.594,65.469,15.375,59.675,0.055,127,5.714,9,38,-0.633
0.055,-0.14,0.952,0.018,-48.242,-54.835,18.594,65.469,15.375,59.675,0.056,128,5.714,9,38,-0.563
0.062,-0.14,0.952,0.019,-48.11,-54.756,18.594,65.469,15.375,59.675,0.055,119,5.538,9,38,-0.492
0.058,-0.14,0.952,0.018,-48.242,-54.756,18.594,65.469,15.375,59.675,0.059,137,6.11,9,38,-0.44
0.055,-0.14,0.952,0.626,12.505,54.352,18.594,65.469,15.375,59.675,0.085,190,8.571,9,38,0.422
0.058,-0.14,0.944,0.056,-44.945,-49.376,18.594,65.469,15.375,59.675,0.055,130,5.67,9,38,-0.492
0.066,-0.14,0.956,0.053,-44.769,-48.743,18.594,65.469,15.375,59.675,0.056,134,5.626,9,38,-0.387
0.055,-0.14,0.952,0.626,12.549,54.589,18.594,65.469,15.375,59.675,0.082,185,8.176,9,38,0.51
0.058,-0.128,0.956,0.626,12.637,54.747,18.594,65.469,15.375,59.675,0.077,175,7.736,9,38,0.387
0.055,-0.14,0.956,0.627,12.549,54.668,18.594,65.469,15.375,59.675,0.076,172,7.56,9,38,0.422
0.058,-0.14,0.956,0.621,12.11,53.798,18.594,65.469,15.375,59.675,0.079,173,7.736,9,38,0.387
0.058,-0.144,0.956,0.002,-49.824,-57.604,18.594,65.469,15.375,59.675,0.058,125,5.582,9,38,-0.404
0.058,-0.144,0.959,0.002,-49.824,-57.684,18.594,65.469,15.375,59.675,0.06,133,5.846,6,25,-0.44
0.055,-0.14,0.952,0.62,12.022,53.64,18.594,65.469,15.375,59.675,0.075,182,7.516,6,25,0.545
0.058,-0.14,0.952,0.623,12.198,53.877,18.594,65.469,15.375,59.675,0.08,180,7.824,6,25,0.475
0.055,-0.136,0.956,0.622,12.11,53.956,18.594,65.469,15.375,59.675,0.08,184,8.132,6,25,0.44
0.058,-0.14,0.952,0.623,12.198,53.877,18.594,65.469,15.375,59.675,0.077,175,7.692,6,25,0.492
0.058,-0.14,0.952,0.623,12.198,53.877,18.594,65.469,15.375,59.675,0.077,175,7.692,6,25,0.492
0.058,-0.14,0.952,0.622,12.154,53.798,18.594,65.469,15.375,59.675,0.081,190,8.088,6,25,0.51
0.058,-0.144,0.944,0.622,12.022,53.719,18.594,65.469,15.375,59.675,0.078,179,7.648,6,25,0.51
0.058,-0.14,0.952,0.622,12.198,53.798,18.594,65.469,15.375,59.675,0.078,176,7.736,6,25,0.422
0.058,-0.14,0.952,0.622,12.198,53.798,18.594,65.469,15.375,59.675,0.078,176,7.736,6,25,0.422
0.058,-0.14,0.948,0.625,12.505,54.431,18.594,65.469,15.375,59.675,0.08,187,8.176,6,25,0.457
0.055,-0.14,0.959,0.174,-32.989,-27.301,18.594,65.469,15.375,59.675,0.058,133,5.758,6,25,-0.316
0.055,-0.14,0.952,0.627,12.549,54.589,18.594,65.469,15.375,59.675,0.079,179,7.824,6,25,0.457
0.055,-0.136,0.956,0.625,12.33,54.273,18.594,65.469,15.375,59.675,0.079,182,8.044,6,25,0.404
0.062,-0.14,0.956,0.626,12.549,54.589,18.594,65.469,15.375,59.675,0.078,173,7.692,6,25,0.492
0.058,-0.14,0.956,0.627,12.637,54.668,18.594,65.469,15.375,59.675,0.079,178,8,6,25,0.475
0.066,-0.14,0.952,0.627,12.505,54.51,18.594,65.469,15.375,59.675,0.075,170,7.692,6,25,0.404
0.055,-0.136,0.952,0.059,-44.374,-47.952,18.594,65.469,15.375,59.675,0.057,128,5.758,6,25,-0.58
0.055,-0.136,0.963,0.627,12.637,54.747,18.594,65.469,15.344,59.619,0.079,180,7.78,6,25,0.457
0.055,-0.144,0.952,0.622,12.066,53.877,18.594,65.469,15.344,59.619,0.078,183,8.132,6,25,0.44
0.055,-0.14,0.956,0.623,12.242,53.956,18.594,65.469,15.344,59.619,0.078,174,7.56,6,25,0.457
0.058,-0.14,0.952,0.622,12.198,53.798,18.594,65.469,15.344,59.619,0.079,173,7.736,6,25,0.422
0.062,-0.14,0.952,0.095,-40.857,-41.859,18.594,65.469,15.344,59.619,0.058,133,5.626,6,25,-0.404
0.062,-0.144,0.952,0.621,12.066,53.798,18.156,64.681,15.344,59.619,0.082,193,8.571,6,25,0.492
0.058,-0.14,0.944,0.091,-41.077,-41.78,18.156,64.681,15.344,59.619,0.06,140,6.11,6,25,-0.369
0.058,-0.136,0.956,0.09,-40.989,-41.464,18.156,64.681,15.344,59.619,0.058,135,5.846,6,25,-0.475
0.058,-0.14,0.952,0.091,-40.945,-41.543,18.156,64.681,15.344,59.619,0.059,137,5.934,6,25,-0.422
0.058,-0.14,0.956,0.622,12.066,53.56,18.156,64.681,15.344,59.619,0.081,181,8,6,25,0.527
0.062,-0.14,0.952,0.006,-49.516,-56.971,18.156,64.681,15.344,59.619,0.055,128,5.582,6,25,-0.422
0.055,-0.14,0.956,0.626,12.593,54.826,18.156,64.681,15.344,59.619,0.083,187,8.308,6,25,0.492
0.058,-0.14,0.959,0.626,12.593,54.668,18.156,64.681,15.344,59.619,0.08,181,7.912,6,25,0.422
0.055,-0.14,0.952,0.626,12.593,54.668,18.156,64.681,15.344,59.619,0.078,178,7.736,6,25,0.475
0.058,-0.14,0.956,0.625,12.593,54.747,18.156,64.681,15.344,59.619,0.079,170,7.912,6,25,0.457
0.058,-0.136,0.956,0.038,-46.44,-51.591,18.156,64.681,15.344,59.619,0.058,127,5.626,6,25,-0.527
0.062,-0.132,0.956,0.047,-46.044,-51.275,18.156,64.681,15.344,59.619,0.057,131,5.67,6,25,-0.457
0.055,-0.14,0.956,0.625,12.374,54.273,18.156,64.681,15.344,59.619,0.081,190,8.22,6,25,0.404
0.055,-0.136,0.956,0.625,12.505,54.51,18.156,64.681,15.344,59.619,0.078,177,7.956,6,25,0.369
0.058,-0.14,0.956,0.625,12.505,54.51,18.156,64.681,15.344,59.619,0.084,189,8.396,6,25,0.51
0.058,-0.14,0.952,0.625,12.549,54.51,18.156,64.681,15.344,59.619,0.08,182,8,6,25,0.475
0.051,-0.136,0.956,0.627,12.549,54.668,18.156,64.681,15.344,59.619,0.081,185,8.176,6,25,0.492
0.058,-0.136,0.959,0.002,-49.78,-57.525,18.156,64.681,15.344,59.619,0.058,125,5.934,6,25,-0.58
0.058,-0.14,0.959,0.626,12.593,54.826,18.156,64.681,15.344,59.619,0.082,183,8.176,6,25,0.44
0.055,-0.14,0.952,0.625,12.418,54.431,18.156,64.681,15.344,59.619,0.08,179,7.824,6,25,0.404
0.058,-0.144,0.952,0.626,12.505,54.431,18.156,64.681,15.344,59.619,0.08,177,7.78,6,25,0.475
0.058,-0.14,0.952,0.627,12.637,54.51,18.156,64.681,15.344,59.619,0.082,185,8.22,6,25,0.387
0.058,-0.14,0.956,0.002,-49.824,-57.684,18.156,64.681,15.344,59.619,0.051,118,5.407,6,25,-0.44
0.055,-0.14,0.956,0.626,12.593,54.589,18.156,64.681,15.344,59.619,0.058,133,5.934,6,25,0.387
0.058,-0.14,0.948,0.002,-49.78,-57.604,18.156,64.681,15.344,59.619,0.061,141,6.33,6,25,-0.44
0.055,-0.14,0.956,0.002,-49.78,-57.604,18.156,64.681,15.344,59.619,0.057,129,5.758,6,25,-0.457
0.058,-0.14,0.948,0.002,-49.78,-57.525,18.156,64.681,15.344,59.619,0.058,129,5.714,6,25,-0.51
0.062,-0.14,0.952,0.622,12.154,53.719,18.156,64.681,15.344,59.619,0.078,175,7.78,6,25,0.51
0.062,-0.14,0.952,0.622,12.154,53.719,18.156,64.681,15.344,59.619,0.078,175,7.78,6,25,0.51
0.055,-0.136,0.956,0.01,-49.033,-56.259,18.156,64.681,15.344,59.619,0.054,123,5.275,6,25,-0.457
0.055,-0.132,0.959,0.01,-48.989,-56.18,18.156,64.681,15.344,59.619,0.058,132,5.319,6,25,-0.651
0.055,-0.136,0.948,0.011,-48.901,-56.18,18.156,64.681,15.344,59.619,0.061,132,5.89,6,25,-0.404
0.058,-0.136,0.956,0.009,-49.033,-56.259,18.156,64.681,15.344,59.619,0.059,132,5.714,6,25,-0.598
0.058,-0.144,0.956,0.606,10.484,50.791,18.156,64.681,15.344,59.619,0.077,172,7.868,6,25,0.404
0.058,-0.14,0.956,0.112,-39.099,-38.615,18.156,64.681,15.344,59.619,0.057,136,5.758,6,25,-0.422
0.062,-0.14,0.952,0.622,12.11,53.877,18.156,64.681,15.344,59.619,0.076,180,7.692,6,25,0.527
0.051,-0.148,0.956,0.136,-36.593,-33.71,18.156,64.681,15.344,59.619,0.064,144,6.242,6,25,-0.264
0.055,-0.14,0.956,0.135,-36.813,-34.264,18.156,64.681,15.344,59.619,0.062,147,6.022,7,30,-0.211
0.055,-0.14,0.956,0.135,-36.813,-34.264,18.156,64.681,15.344,59.619,0.062,147,6.022,7,30,-0.211
0.058,-0.14,0.956,0.626,12.462,54.589,18.156,64.681,15.344,59.619,0.079,178,7.868,7,30,0.422
0.058,-0.14,0.959,0.021,-47.934,-54.281,18.156,64.681,15.344,59.619,0.061,136,6.066,7,30,-0.492
0.058,-0.14,0.959,0.021,-47.934,-54.281,18.156,64.681,15.344,59.619,0.061,136,6.066,7,30,-0.492
0.058,-0.14,0.952,0.626,12.593,54.668,18.156,64.681,15.344,59.619,0.08,182,8,7,30,0.457
0.058,-0.14,0.952,0.626,12.593,54.668,18.156,64.681,15.344,59.619,0.08,182,8,7,30,0.457
0.062,-0.14,0.956,0.627,12.725,54.826,18.156,64.681,15.344,59.619,0.081,187,8.22,7,30,0.475
0.058,-0.136,0.944,0.597,9.516,49.051,18.156,64.681,15.375,59.675,0.082,186,8.132,7,30,0.475
0.058,-0.14,0.952,0.002,-49.824,-57.684,18.156,64.681,15.375,59.675,0.058,132,5.934,7,30,-0.457
0.055,-0.14,0.956,0.623,12.242,54.273,18.156,64.681,15.375,59.675,0.083,195,8.396,7,30,0.457
0.058,-0.136,0.959,0.002,-49.824,-57.684,18.156,64.681,15.375,59.675,0.06,142,5.978,7,30,-0.457
0.058,-0.14,0.952,0.002,-49.824,-57.604,18.156,64.681,15.375,59.675,0.062,134,6.11,7,30,-0.422
0.058,-0.136,0.956,0.002,-49.78,-57.684,18.188,64.738,15.375,59.675,0.061,137,6.198,7,30,-0.422
0.055,-0.14,0.956,0.622,12.242,53.877,18.188,64.738,15.375,59.675,0.083,191,8.264,7,30,0.457
0.055,-0.14,0.948,0.164,-33.868,-29.042,18.188,64.738,15.375,59.675,0.062,142,6.286,7,30,-0.316
0.058,-0.14,0.94,0.165,-33.78,-28.804,18.188,64.738,15.375,59.675,0.065,142,6.242,7,30,-0.334
0.055,-0.136,0.956,0.145,-35.758,-32.681,18.188,64.738,15.375,59.675,0.061,141,6.11,7,30,-0.422
0.058,-0.132,0.956,0.145,-35.802,-32.444,18.188,64.738,15.375,59.675,0.06,131,5.714,7,30,-0.387
0.055,-0.14,0.956,0.607,10.571,51.029,18.188,64.738,15.375,59.675,0.076,176,7.648,7,30,0.492
0.062,-0.136,0.956,0.606,10.571,50.791,18.188,64.738,15.375,59.675,0.077,179,7.604,7,30,0.44
0.062,-0.132,0.956,0.154,-34.879,-30.703,18.188,64.738,15.375,59.675,0.067,144,6.286,7,30,-0.299
0.055,-0.128,0.952,0.603,10.264,50.554,18.188,64.738,15.375,59.675,0.08,179,8.132,7,30,0.475
0.058,-0.136,0.948,0.602,10.176,50.237,18.188,64.738,15.375,59.675,0.081,178,8,7,30,0.334
0.058,-0.148,0.952,0.625,12.33,54.114,18.188,64.738,15.375,59.675,0.083,189,8.352,7,30,0.492
0.066,-0.148,0.952,0.623,12.33,54.193,18.188,64.738,15.375,59.675,0.082,184,8.176,7,30,0.422
0.058,-0.136,0.956,0.623,12.242,54.035,18.188,64.738,15.375,59.675,0.08,184,8.088,7,30,0.44
0.058,-0.136,0.956,0.019,-48.066,-54.44,18.188,64.738,15.375,59.675,0.065,144,6.374,7,30,-0.58
0.058,-0.14,0.952,0.022,-47.978,-54.598,18.188,64.738,15.375,59.675,0.055,126,5.407,7,30,-0.51
0.062,-0.144,0.956,0.624,12.286,53.956,18.188,64.738,15.375,59.675,0.082,187,8.22,7,30,0.404
0.062,-0.124,0.944,0.019,-47.978,-54.281,18.188,64.738,15.375,59.675,0.059,137,5.89,7,30,-0.545
0.055,-0.136,0.94,0.624,12.286,53.956,18.188,64.738,15.375,59.675,0.082,186,8.264,7,30,0.44
0.051,-0.14,0.944,0.128,-37.385,-35.688,18.188,64.738,15.375,59.675,0.061,138,6.198,7,30,-0.334
0.066,-0.148,0.94,0.623,12.33,54.193,18.188,64.738,15.375,59.675,0.086,189,8.44,7,30,0.422
0.062,-0.152,0.948,0.125,-37.692,-35.609,18.188,64.738,15.375,59.675,0.065,145,6.593,7,30,-0.369
0.066,-0.14,0.948,0.127,-37.429,-35.292,18.188,64.738,15.375,59.675,0.062,137,6.242,7,30,-0.334
0.062,-0.136,0.936,0.131,-37.121,-34.818,18.188,64.738,15.375,59.675,0.064,148,6.505,7,30,-0.492
0.066,-0.132,0.952,0.626,12.549,54.51,18.188,64.738,15.375,59.675,0.082,186,8.352,7,30,0.475
0.07,-0.124,0.948,0.143,-36.066,-32.919,18.188,64.738,15.375,59.675,0.064,139,6.198,7,30,-0.369
0.062,-0.124,0.94,0.146,-35.758,-32.919,18.188,64.738,15.375,59.675,0.062,138,6.242,7,30,-0.422
0.051,-0.128,0.936,0.146,-35.67,-32.444,18.188,64.738,15.375,59.675,0.066,150,6.593,7,30,-0.316
0.058,-0.14,0.94,0.141,-36.11,-33.156,18.188,64.738,15.375,59.675,0.068,155,6.725,7,30,-0.229
0.055,-0.144,0.944,0.625,12.505,54.51,18.188,64.738,15.375,59.675,0.08,181,7.824,7,30,0.475
0.058,-0.14,0.956,0.626,12.505,54.431,18.188,64.738,15.375,59.675,0.077,173,7.736,7,30,0.492
0.066,-0.148,0.956,0.09,-41.121,-42.176,18.188,64.738,15.375,59.675,0.06,139,6.022,7,30,-0.352
0.055,-0.14,0.959,0.091,-41.165,-42.176,18.188,64.738,15.375,59.675,0.06,137,5.978,7,30,-0.404
0.062,-0.14,0.952,0.091,-41.121,-42.176,18.188,64.738,15.375,59.675,0.056,134,5.846,7,30,-0.334
0.062,-0.14,0.952,0.091,-41.121,-42.176,18.188,64.738,15.375,59.675,0.056,134,5.846,7,30,-0.334
0.058,-0.14,0.948,0.092,-40.989,-41.859,18.188,64.738,15.375,59.675,0.06,134,6.11,7,30,-0.44
0.055,-0.14,0.956,0.626,12.637,54.668,18.188,64.738,15.375,59.675,0.077,176,7.868,7,30,0.527
0.055,-0.136,0.956,0.008,-49.165,-56.497,18.188,64.738,15.375,59.675,0.055,124,5.67,7,30,-0.44
0.058,-0.136,0.956,0.626,12.549,54.589,18.188,64.738,15.375,59.675,0.082,183,8.132,7,30,0.457
0.055,-0.14,0.948,0.626,12.681,54.747,18.188,64.738,15.375,59.675,0.08,184,7.956,7,30,0.492
0.058,-0.14,0.952,0.597,9.604,49.446,18.188,64.738,15.375,59.675,0.075,172,7.473,7,30,0.369
0.058,-0.136,0.944,0.626,12.593,54.668,18.188,64.738,15.375,59.675,0.081,183,8.044,7,30,0.475
0.043,-0.14,0.959,0.002,-49.824,-57.763,18.188,64.738,15.375,59.675,0.055,129,5.495,7,30,-0.422
0.062,-0.144,0.952,0.001,-49.868,-57.763,18.188,64.738,15.375,59.675,0.054,125,5.538,7,30,-0.475
0.055,-0.136,0.952,0.602,10.132,50.158,18.188,64.738,15.375,59.675,0.084,188,8.088,7,30,0.352
0.055,-0.14,0.952,0.603,10.308,50.475,18.188,64.738,15.375,59.675,0.079,178,7.736,7,30,0.44
0.062,-0.14,0.952,0.609,10.879,51.503,18.188,64.738,15.375,59.675,0.075,173,7.385,7,30,0.44
0.055,-0.132,0.956,0.624,12.33,54.193,18.188,64.738,15.375,59.675,0.08,184,8.044,7,30,0.44
0.058,-0.14,0.952,0.001,-49.868,-57.842,18.188,64.738,15.375,59.675,0.057,129,5.758,8,34,-0.51
0.062,-0.14,0.959,0.624,12.286,54.193,18.188,64.738,15.375,59.675,0.077,179,7.78,8,34,0.475
0.058,-0.14,0.959,0.605,10.44,50.712,18.188,64.738,15.375,59.675,0.079,182,8.044,8,34,0.369
0.058,-0.14,0.959,0.605,10.44,50.712,18.188,64.738,15.375,59.675,0.079,182,8.044,8,34,0.369
0.058,-0.14,0.956,0.624,12.242,54.035,17.625,63.725,15.375,59.675,0.081,187,8.264,8,34,0.457
0.055,-0.14,0.948,0.603,10.176,50.316,17.625,63.725,15.375,59.675,0.081,185,7.912,8,34,0.44
0.058,-0.144,0.956,0.116,-38.571,-37.824,17.625,63.725,15.375,59.675,0.058,125,5.582,8,34,-0.369
0.058,-0.14,0.959,0.116,-38.879,-37.903,17.625,63.725,15.375,59.675,0.067,157,6.945,8,34,-0.404
0.055,-0.14,0.956,0.115,-38.879,-37.982,17.625,63.725,15.375,59.675,0.062,139,6.11,8,34,-0.44
0.055,-0.14,0.956,0.115,-38.879,-37.982,17.625,63.725,15.375,59.675,0.062,139,6.11,8,34,-0.44
0.062,-0.14,0.959,0.12,-38.088,-36.558,17.625,63.725,15.375,59.675,0.063,144,6.505,8,34,-0.334
0.055,-0.136,0.959,0.624,12.33,54.114,17.625,63.725,15.375,59.675,0.08,182,8.044,8,34,0.369
0.055,-0.132,0.956,0.596,9.341,48.813,17.625,63.725,15.375,59.675,0.077,180,7.78,8,34,0.404
0.058,-0.14,-0.039,0.594,9.341,48.734,17.625,63.725,15.375,59.675,0.077,180,7.78,8,34,0.404
0.058,-0.14,-0.039,0.594,9.341,48.734,17.625,63.725,15.375,59.675,0.075,173,7.736,8,34,0.44
0.058,-0.14,0.956,0.625,12.33,54.114,17.625,63.725,15.375,59.675,0.077,176,7.56,8,34,0.492
0.058,-0.144,0.948,0.598,9.692,49.525,17.625,63.725,15.375,59.675,0.078,176,7.78,8,34,0.404
0.055,-0.144,0.956,0.624,12.33,54.114,17.625,63.725,15.375,59.675,0.078,175,7.736,8,34,0.475
0.058,-0.14,0.956,0.029,-47.187,-52.778,17.625,63.725,15.375,59.675,0.055,125,5.582,8,34,-0.527
0.058,-0.14,0.959,0.624,12.242,54.035,17.625,63.725,15.375,59.675,0.081,180,8.176,8,34,0.44
0.058,-0.14,0.948,0.624,12.242,54.114,17.625,63.725,15.375,59.675,0.081,183,7.912,8,34,0.44
0.051,-0.14,0.959,0.623,12.198,53.956,17.625,63.725,15.375,59.675,0.079,183,8.132,8,34,0.422
0.058,-0.136,0.956,0.623,12.33,54.193,17.625,63.725,15.375,59.675,0.077,181,7.868,8,34,0.457
0.055,-0.14,0.959,0.606,10.396,50.949,17.625,63.725,15.375,59.675,0.075,175,7.56,8,34,0.475
0.058,-0.14,0.956,0.015,-49.165,-56.497,17.625,63.725,15.375,59.675,0.058,137,5.802,8,34,-0.475
0.058,-0.14,0.959,0.008,-49.209,-56.497,17.625,63.725,15.375,59.675,0.061,141,5.846,8,34,-0.422
0.058,-0.14,0.948,0.007,-49.209,-56.418,17.625,63.725,15.375,59.675,0.057,148,5.846,8,34,-0.422
0.058,-0.132,0.952,0.002,-49.78,-55.468,17.625,63.725,15.375,59.675,0.056,122,5.89,8,34,-0.563
0.062,-0.14,0.948,0.005,-49.56,-57.288,17.625,63.725,15.375,59.675,0.057,128,5.538,8,34,-0.527
0.058,-0.136,0.948,0.626,12.593,54.668,17.625,63.725,15.375,59.675,0.081,183,7.956,8,34,0.475
0.055,-0.14,0.956,0.004,-49.604,-57.288,17.625,63.725,15.375,59.675,0.055,126,5.495,8,34,-0.404
0.058,-0.14,0.956,0.001,-49.824,-57.684,17.625,63.725,15.375,59.675,0.061,134,5.978,8,34,-0.422
0.058,-0.128,0.952,0.005,-49.56,-57.13,17.625,63.725,15.375,59.675,0.058,134,5.846,8,34,-0.422
0.058,-0.14,0.956,0.002,-49.78,-57.604,17.625,63.725,15.375,59.675,0.061,136,5.89,8,34,-0.422
0.058,-0.14,0.956,0.628,12.593,54.589,17.625,63.725,15.375,59.675,0.076,175,7.648,8,34,0.422
0.051,-0.136,0.948,0.002,-49.824,-57.684,17.625,63.725,15.375,59.675,0.058,135,6.066,8,34,-0.492
0.055,-0.148,0.952,0.007,-49.253,-56.734,17.625,63.725,15.375,59.675,0.055,125,5.495,8,34,-0.51
0.058,-0.14,0.956,0.6,9.956,49.842,17.625,63.725,15.375,59.675,0.084,199,8.396,8,34,0.44
0.055,-0.144,0.944,0.625,12.462,54.431,17.625,63.725,15.375,59.675,0.077,176,8,8,34,0.457
0.055,-0.14,0.956,0.627,12.549,54.51,17.625,63.725,15.375,59.675,0.076,176,7.78,8,34,0.51
0.062,-0.14,0.956,0.609,10.923,51.424,17.625,63.725,15.375,59.675,0.08,182,7.912,8,34,0.422
0.058,-0.136,0.952,0.08,-42.176,-43.996,17.625,63.725,15.375,59.675,0.062,139,6.154,8,34,-0.44
0.058,-0.14,0.956,0.082,-42.22,-44.154,17.625,63.725,15.375,59.675,0.059,133,6.11,8,34,-0.492
0.058,-0.14,0.952,0.625,12.505,54.51,17.625,63.725,15.375,59.675,0.077,176,7.78,8,34,0.492
0.058,-0.14,0.963,0.607,10.571,51.266,17.625,63.725,15.375,59.675,0.08,180,8.088,8,34,0.422
0.055,-0.14,0.952,0.628,12.549,54.589,17.625,63.725,15.375,59.675,0.079,178,7.956,8,34,0.457
0.058,-0.14,0.956,0.607,10.527,50.87,17.625,63.725,15.375,59.675,0.077,173,7.516,8,34,0.44
0.058,-0.14,0.956,0.002,-49.824,-57.604,17.625,63.725,15.375,59.675,0.054,127,5.495,8,34,-0.51
0.058,-0.136,0.956,0.626,12.681,54.826,17.625,63.725,15.375,59.675,0.084,188,8.176,8,34,0.457
0.055,-0.136,0.948,0.602,10.176,50.158,17.625,63.725,15.375,59.675,0.08,184,7.868,8,34,0.422
0.058,-0.14,0.956,0.599,9.868,49.921,17.625,63.725,15.375,59.675,0.084,191,8.22,8,34,0.404
0.055,-0.136,-0.039,0.624,12.242,54.114,17.625,63.725,15.375,59.675,0.078,177,7.473,8,34,0.545
0.055,-0.136,-0.039,0.624,12.242,54.114,17.625,63.725,15.375,59.675,0.078,177,7.473,8,34,0.545
0.058,-0.14,0.959,0.124,-37.912,-36.637,17.625,63.725,15.375,59.675,0.057,130,5.846,8,34,-0.334
0.062,-0.14,0.956,0.12,-38.176,-36.637,17.469,63.444,15.375,59.675,0.062,136,5.978,8,34,-0.369
0.062,-0.14,0.956,0.124,-37.868,-36.637,17.469,63.444,15.375,59.675,0.058,131,5.978,8,34,-0.316
0.058,-0.14,0.956,0.155,-34.747,-30.782,17.469,63.444,15.375,59.675,0.061,132,5.626,8,34,-0.369
0.058,-0.136,0.959,0.149,-35.363,-31.969,17.469,63.444,15.375,59.675,0.06,134,5.846,8,34,-0.369
0.058,-0.14,0.959,0.597,9.648,49.209,17.469,63.444,15.375,59.675,0.078,177,8,8,34,0.527
0.055,-0.14,0.94,0.045,-45.604,-50.246,17.469,63.444,15.375,59.675,0.057,131,5.319,8,34,-0.422
0.062,-0.14,0.936,0.624,12.33,54.114,17.469,63.444,15.375,59.675,0.077,177,7.692,7,30,0.475
0.058,-0.14,0.952,0.623,12.286,53.956,17.469,63.444,15.375,59.675,0.079,176,8.044,7,30,0.369
0.058,-0.144,0.956,0.623,12.242,53.877,17.469,63.444,15.375,59.675,0.078,176,7.868,7,30,0.44
0.055,-0.14,0.94,0.624,12.33,54.114,17.469,63.444,15.375,59.675,0.079,176,7.912,7,30,0.387
0.055,-0.14,0.94,0.624,12.33,54.114,17.469,63.444,15.375,59.675,0.079,176,7.912,7,30,0.387
0.051,-0.14,0.952,0.05,-44.989,-49.059,17.469,63.444,15.375,59.675,0.059,130,5.934,7,30,-0.475
0.058,-0.14,0.956,0.039,-46.176,-51.275,17.469,63.444,15.375,59.675,0.053,122,5.582,7,30,-0.457
0.058,-0.14,0.956,0.039,-46.176,-51.275,17.469,63.444,15.375,59.675,0.053,122,5.582,7,30,-0.457
0.051,-0.136,0.956,0.037,-46.527,-51.354,17.469,63.444,15.375,59.675,0.055,119,5.407,7,30,-0.527
0.058,-0.14,0.952,0.623,12.242,54.193,17.469,63.444,15.375,59.675,0.079,184,8.044,7,30,0.475
0.062,-0.14,0.956,0.623,12.242,54.035,17.469,63.444,15.375,59.675,0.078,183,7.824,7,30,0.475
0.058,-0.14,0.952,0.009,-49.033,-56.259,17.469,63.444,15.375,59.675,0.054,126,5.626,7,30,-0.44
0.055,-0.14,0.963,0.623,12.286,54.273,17.469,63.444,15.375,59.675,0.08,179,7.956,7,30,0.492
0.058,-0.14,0.944,0.624,12.198,54.114,17.469,63.444,15.375,59.675,0.076,174,7.78,7,30,0.492
0.058,-0.14,0.956,0.624,12.418,54.352,17.469,63.444,15.375,59.675,0.081,179,8.044,7,30,0.44
0.058,-0.14,0.956,0.627,12.505,54.589,17.469,63.444,15.375,59.675,0.08,183,7.868,7,30,0.457
0.058,-0.136,0.952,0.007,-49.385,-56.813,17.469,63.444,15.375,59.675,0.059,131,5.451,7,30,-0.44
0.058,-0.14,0.948,0.011,-48.901,-55.705,17.469,63.444,15.375,59.675,0.058,135,5.758,7,30,-0.475
0.055,-0.14,0.952,0.012,-48.769,-55.864,17.469,63.444,15.375,59.675,0.056,134,5.758,7,30,-0.492
0.058,-0.136,0.952,0.626,12.593,54.668,17.469,63.444,15.375,59.675,0.077,179,7.824,7,30,0.545
0.058,-0.14,0.959,0.627,12.637,54.747,17.469,63.444,15.375,59.675,0.08,182,8.088,7,30,0.457
0.058,-0.14,0.956,0.625,12.462,54.431,17.469,63.444,15.375,59.675,0.079,178,7.956,7,30,0.457
0.058,-0.14,0.952,0.625,12.593,54.352,17.469,63.444,15.375,59.675,0.08,183,7.868,7,30,0.334
0.058,-0.14,0.956,0.625,12.462,54.431,17.469,63.444,15.375,59.675,0.077,175,7.736,7,30,0.457
0.058,-0.14,0.959,0.609,10.835,51.503,17.469,63.444,15.375,59.675,0.08,182,8,7,30,0.527
0.058,-0.136,0.944,0.609,10.835,51.503,17.469,63.444,15.375,59.675,0.08,182,8,7,30,0.527
0.058,-0.136,0.944,0.626,12.549,54.668,17.469,63.444,15.375,59.675,0.082,182,8.176,7,30,0.492
0.058,-0.14,0.956,0.014,-48.593,-55.468,17.469,63.444,15.375,59.675,0.058,133,5.802,7,30,-0.457
0.058,-0.14,0.959,0.014,-48.593,-55.468,17.469,63.444,15.375,59.675,0.06,133,5.758,7,30,-0.492
0.055,-0.14,0.956,0.015,-48.418,-55.231,17.469,63.444,15.375,59.675,0.056,133,5.978,7,30,-0.475
0.058,-0.136,0.948,0.011,-48.989,-56.18,17.469,63.444,15.375,59.675,0.058,130,5.67,7,30,-0.51
0.058,-0.136,0.956,0.019,-48.066,-54.44,17.469,63.444,15.375,59.675,0.063,146,6.549,7,30,-0.457
0.055,-0.136,0.956,0.626,12.637,54.589,17.469,63.444,15.375,59.675,0.08,181,7.956,7,30,0.404
0.062,-0.14,0.959,0.001,-49.868,-57.684,17.469,63.444,15.375,59.675,0.054,126,5.626,7,30,-0.51
0.058,-0.132,0.952,0.626,12.505,54.51,17.469,63.444,15.375,59.675,0.08,182,8.088,7,30,0.492
0.051,-0.14,0.952,0.599,9.824,49.763,17.469,63.444,15.375,59.675,0.081,183,7.824,7,30,0.44
0.055,-0.14,0.952,0.597,9.56,49.051,17.469,63.444,15.375,59.675,0.076,177,7.956,7,30,0.369
0.058,-0.144,0.956,0.626,12.505,54.589,17.469,63.444,15.375,59.675,0.078,176,7.692,7,30,0.44
0.058,-0.14,0.956,0.626,12.593,54.431,17.469,63.444,15.375,59.675,0.079,177,7.78,7,30,0.404
0.062,-0.14,0.956,0.113,-38.615,-37.033,17.469,63.444,15.375,59.675,0.058,127,5.758,7,30,-0.299
0.058,-0.14,0.956,0.121,-38.132,-36.558,17.469,63.444,15.406,59.731,0.061,136,6.022,7,30,-0.369
0.055,-0.144,0.959,0.623,12.286,54.193,17.469,63.444,15.406,59.731,0.079,179,7.824,7,30,0.475
0.055,-0.144,0.952,0.625,12.462,54.273,17.469,63.444,15.406,59.731,0.08,177,7.78,7,30,0.387
0.055,-0.14,0.956,0.624,12.286,54.193,17.469,63.444,15.406,59.731,0.08,178,7.912,7,30,0.44
0.058,-0.14,0.948,0.624,12.242,54.035,17.469,63.444,15.406,59.731,0.076,174,7.78,7,30,0.404
0.058,-0.144,0.952,0.611,11.099,51.978,16.688,62.037,15.406,59.731,0.078,179,7.736,7,30,0.387
0.055,-0.14,0.956,0.011,-48.813,-56.418,16.688,62.037,15.406,59.731,0.059,127,5.758,7,30,-0.457
0.062,-0.14,0.952,0.607,10.703,51.029,16.688,62.037,15.406,59.731,0.076,177,7.648,7,30,0.44
0.058,-0.136,0.956,0.623,12.286,53.798,16.688,62.037,15.406,59.731,0.079,176,7.956,7,30,0.492
0.058,-0.136,0.956,0.623,12.286,53.798,16.688,62.037,15.406,59.731,0.079,176,7.956,7,30,0.492
0.058,-0.14,0.956,0.002,-49.78,-57.684,16.688,62.037,15.406,59.731,0.055,130,5.714,7,30,-0.527
0.058,-0.14,0.956,0.002,-49.824,-57.684,16.688,62.037,15.406,59.731,0.058,128,5.714,7,30,-0.475
0.062,-0.14,0.959,0.002,-49.78,-57.604,16.688,62.037,15.406,59.731,0.061,126,5.846,7,30,-0.334
0.058,-0.136,0.956,0.001,-49.868,-57.763,16.688,62.037,15.406,59.731,0.056,125,5.714,7,30,-0.457
0.055,-0.14,0.948,0.002,-49.824,-57.604,16.688,62.037,15.406,59.731,0.061,134,5.846,7,30,-0.352
0.058,-0.14,0.956,0.001,-49.868,-57.763,16.688,62.037,15.406,59.731,0.058,130,5.582,7,30,-0.369
0.055,-0.14,0.959,0.083,-41.868,-43.125,16.688,62.037,15.406,59.731,0.058,135,6.066,7,30,-0.422
0.055,-0.14,0.956,0.081,-41.912,-43.996,16.688,62.037,15.406,59.731,0.058,132,5.89,7,30,-0.387
0.058,-0.14,0.952,0.623,12.242,53.877,16.688,62.037,15.406,59.731,0.081,184,8.044,7,30,0.422
0.055,-0.136,0.956,0.623,12.374,54.035,16.688,62.037,15.406,59.731,0.079,175,7.736,7,30,0.369
0.058,-0.136,0.956,0.624,12.286,53.877,16.688,62.037,15.406,59.731,0.075,173,7.473,8,34,0.492
0.058,-0.14,0.956,0.593,9.297,48.655,16.688,62.037,15.406,59.731,0.076,174,7.473,8,34,0.352
0.062,-0.14,0.952,0.595,9.473,48.813,16.688,62.037,15.406,59.731,0.078,174,7.692,8,34,0.404
0.058,-0.14,0.932,0.523,9.385,52.295,16.688,62.037,15.406,59.731,0.079,177,7.692,8,34,0.527
0.058,-0.14,0.932,0.523,9.385,52.295,16.688,62.037,15.406,59.731,0.079,177,7.692,8,34,0.527
0.051,-0.132,0.94,0.623,12.242,53.877,16.688,62.037,15.406,59.731,0.078,175,7.78,8,34,0.387
0.062,-0.136,0.952,0.626,12.549,54.668,16.688,62.037,15.406,59.731,0.08,177,7.78,8,34,0.44
0.066,-0.132,0.948,0.625,12.549,54.668,16.688,62.037,15.406,59.731,0.08,182,8.088,8,34,0.422
0.058,-0.14,0.948,0.066,-43.582,-46.448,16.688,62.037,15.406,59.731,0.059,131,5.758,8,34,-0.44
0.062,-0.136,0.952,0.064,-43.802,-46.527,16.688,62.037,15.406,59.731,0.056,128,5.802,8,34,-0.404
0.062,-0.136,0.952,0.064,-43.802,-46.527,16.688,62.037,15.406,59.731,0.056,128,5.802,8,34,-0.404
0.055,-0.136,0.959,0.069,-43.538,-46.765,16.688,62.037,15.406,59.731,0.058,130,5.802,8,34,-0.422
0.055,-0.14,0.956,0.068,-43.582,-46.527,16.688,62.037,15.406,59.731,0.058,119,5.67,8,34,-0.492
0.058,-0.136,0.956,0.625,12.505,54.589,16.688,62.037,15.406,59.731,0.077,178,7.868,8,34,0.404
0.058,-0.14,0.952,0.01,-48.945,-55.943,16.688,62.037,15.406,59.731,0.057,132,5.67,8,34,-0.527
0.058,-0.14,0.956,0.011,-48.813,-55.943,16.688,62.037,15.406,59.731,0.058,128,5.978,8,34,-0.475
0.058,-0.14,0.956,0.007,-49.341,-56.892,16.688,62.037,15.406,59.731,0.057,121,5.626,8,34,-0.527
0.058,-0.14,0.952,0.007,-49.429,-56.892,16.688,62.037,15.406,59.731,0.054,123,5.407,8,34,-0.457
0.062,-0.136,0.952,0.006,-49.341,-56.813,16.688,62.037,15.406,59.731,0.055,128,5.582,8,34,-0.44
0.062,-0.136,0.952,0.006,-49.341,-56.813,16.688,62.037,15.406,59.731,0.055,128,5.582,8,34,-0.44
0.058,-0.132,0.952,0.159,-34.484,-30.545,16.688,62.037,15.406,59.731,0.061,136,6.022,8,34,-0.246
0.055,-0.136,0.956,0.156,-34.835,-31.178,16.688,62.037,15.406,59.731,0.058,130,5.758,8,34,-0.316
0.055,-0.136,0.948,0.155,-34.703,-30.862,16.688,62.037,15.406,59.731,0.062,139,6.154,8,34,-0.281
0.058,-0.14,0.956,0.625,12.462,54.431,16.688,62.037,15.406,59.731,0.08,180,8,8,34,0.457
0.058,-0.136,0.959,0.624,12.374,54.273,16.688,62.037,15.406,59.731,0.078,172,7.56,8,34,0.457
0.058,-0.136,0.959,0.625,12.418,54.193,16.688,62.037,15.406,59.731,0.08,186,7.956,8,34,0.475
0.058,-0.136,0.956,0.156,-34.527,-30.466,16.688,62.037,15.406,59.731,0.062,141,6.022,8,34,-0.334
0.058,-0.14,0.956,0.625,12.462,54.193,16.688,62.037,15.406,59.731,0.078,174,7.648,8,34,0.352
0.055,-0.14,0.959,0.159,-34.22,-29.516,16.688,62.037,15.406,59.731,0.059,135,5.802,8,34,-0.316
0.058,-0.14,0.959,0.174,-33.165,-27.697,16.688,62.037,15.406,59.731,0.062,143,6.198,8,34,-0.246
0.062,-0.14,0.956,0.157,-34.44,-29.833,16.688,62.037,15.438,59.787,0.059,137,5.846,8,34,-0.299
0.062,-0.136,0.956,0.622,12.198,53.719,16.688,62.037,15.438,59.787,0.08,180,7.912,8,34,0.369
0.055,-0.132,0.959,0.003,-49.736,-57.604,16.688,62.037,15.438,59.787,0.056,129,5.626,8,34,-0.492
0.062,-0.132,0.94,0.622,12.11,53.719,16.688,62.037,15.438,59.787,0.081,186,7.736,8,34,0.457
0.062,-0.14,0.956,0.606,10.484,50.791,16.688,62.037,15.438,59.787,0.077,179,7.604,8,34,0.404
0.055,-0.14,0.956,0.623,12.11,53.798,16.375,61.475,15.438,59.787,0.081,180,8.088,8,34,0.44
0.058,-0.14,0.952,0.622,12.022,53.798,16.375,61.475,15.438,59.787,0.079,178,7.868,8,34,0.422
0.058,-0.136,0.956,0.009,-49.077,-56.338,16.375,61.475,15.438,59.787,0.055,128,5.626,8,34,-0.492
0.055,-0.136,0.956,0.623,12.11,53.719,16.375,61.475,15.438,59.787,0.078,182,7.736,8,34,0.492
0.058,-0.136,0.956,0.602,9.956,49.604,16.375,61.475,15.438,59.787,0.075,173,7.692,8,34,0.334
0.058,-0.136,0.956,0.622,12.198,53.877,16.375,61.475,15.438,59.787,0.077,175,7.604,8,34,0.369
0.055,-0.136,0.959,0.621,12.066,53.798,16.375,61.475,15.438,59.787,0.077,177,7.736,8,34,0.44
0.058,-0.14,0.952,0.622,12.198,53.798,16.375,61.475,15.438,59.787,0.078,175,7.648,8,34,0.404
0.058,-0.14,0.952,0.051,-45.209,-49.613,16.375,61.475,15.438,59.787,0.057,125,5.714,8,34,-0.527
0.055,-0.136,0.952,0.622,11.978,53.798,16.375,61.475,15.438,59.787,0.077,178,7.956,8,34,0.44
0.058,-0.14,0.959,0.622,12.198,53.719,16.375,61.475,15.438,59.787,0.079,179,8.132,8,34,0.51
0.055,-0.136,0.944,0.623,12.286,53.956,16.375,61.475,15.438,59.787,0.08,179,7.824,8,34,0.457
0.055,-0.132,0.944,0.621,12.154,53.798,16.375,61.475,15.438,59.787,0.077,180,7.912,8,34,0.545
0.058,-0.14,0.944,0.622,12.198,53.877,16.375,61.475,15.438,59.787,0.078,179,7.736,8,34,0.475
0.058,-0.14,0.956,0.002,-49.868,-57.684,16.375,61.475,15.438,59.787,0.057,137,5.846,8,34,-0.457
0.058,-0.136,0.952,0.002,-49.824,-57.763,16.375,61.475,15.438,59.787,0.058,131,5.626,8,34,-0.457
0.058,-0.14,-0.039,0.623,12.198,53.64,16.375,61.475,15.438,59.787,0.079,177,7.736,8,34,0.422
0.058,-0.14,0.956,0.622,12.198,53.56,16.375,61.475,15.438,59.787,0.077,178,7.692,8,34,0.404
0.062,-0.14,0.959,0.623,12.198,53.877,16.375,61.475,15.438,59.787,0.079,175,7.824,8,34,0.475
0.055,-0.14,0.952,0.622,12.286,53.877,16.375,61.475,15.438,59.787,0.077,173,7.473,8,34,0.404
0.058,-0.14,0.956,0.004,-49.604,-57.288,16.375,61.475,15.438,59.787,0.056,129,5.626,8,34,-0.387
0.062,-0.14,0.956,0.606,10.571,51.029,16.375,61.475,15.438,59.787,0.083,188,8.44,8,34,0.422
0.058,-0.14,0.959,0.625,12.505,54.431,16.375,61.475,15.438,59.787,0.079,180,7.912,8,34,0.457
0.051,-0.132,0.952,0.605,10.308,50.633,16.375,61.475,15.438,59.787,0.077,179,7.736,8,34,0.457
0.051,-0.148,0.952,0.604,10.176,50.475,16.375,61.475,15.438,59.787,0.08,177,7.868,8,34,0.404
0.058,-0.14,0.959,0.603,10.264,50.316,16.375,61.475,15.438,59.787,0.081,183,7.868,8,34,0.369
0.058,-0.14,-0.039,0.167,-33.297,-28.013,16.375,61.475,15.438,59.787,0.058,131,6.022,8,34,-0.369
0.058,-0.144,0.952,0.171,-32.901,-27.618,16.375,61.475,15.438,59.787,0.062,137,5.89,8,34,-0.316
0.058,-0.14,0.959,0.168,-33.429,-28.33,16.375,61.475,15.438,59.787,0.062,135,5.978,8,34,-0.316
0.058,-0.14,0.952,0.136,-36.725,-33.947,16.375,61.475,15.438,59.787,0.058,133,5.978,8,34,-0.369
0.058,-0.14,0.952,0.136,-36.725,-33.947,16.375,61.475,15.438,59.787,0.058,133,5.978,8,34,-0.369
0.058,-0.136,0.956,0.626,12.505,54.352,16.375,61.475,15.438,59.787,0.077,176,7.736,8,34,0.492
0.058,-0.14,0.952,0.625,12.505,54.431,16.375,61.475,15.438,59.787,0.08,181,8,8,34,0.404
0.055,-0.136,0.967,0.602,10.088,50.158,16.375,61.475,15.438,59.787,0.077,180,7.692,8,34,0.404
0.051,-0.14,0.956,0.626,12.462,54.352,16.375,61.475,15.438,59.787,0.078,179,7.956,8,34,0.475
0.058,-0.14,0.956,0.609,10.923,51.582,16.375,61.475,15.438,59.787,0.076,175,7.56,8,34,0.422
0.058,-0.14,0.956,0.61,10.967,51.82,16.375,61.475,15.438,59.787,0.078,174,7.56,8,34,0.422
0.062,-0.14,0.956,0.079,-41.956,-43.363,16.375,61.475,15.438,59.787,0.062,135,6.11,8,34,-0.387
0.058,-0.14,0.956,0.61,10.879,51.424,16.375,61.475,15.438,59.787,0.08,180,7.912,8,34,0.44
0.062,-0.144,0.952,0.096,-40.593,-40.831,16.375,61.475,15.438,59.787,0.059,131,5.846,8,34,-0.352
0.051,-0.14,0.952,0.101,-39.978,-40.198,16.375,61.475,15.438,59.787,0.062,139,5.758,8,34,-0.527
0.062,-0.136,0.959,0.084,-41.736,-43.046,16.375,61.475,15.438,59.787,0.058,133,5.89,8,34,-0.475
0.055,-0.136,0.959,0.607,10.747,51.187,16.375,61.475,15.438,59.787,0.078,174,7.604,8,34,0.387
0.062,-0.136,0.959,0.003,-49.692,-57.525,16.375,61.475,15.438,59.787,0.052,124,5.187,8,34,-0.44
0.055,-0.14,0.956,0.009,-48.945,-57.209,16.375,61.475,15.438,59.787,0.057,137,5.714,8,34,-0.51
0.058,-0.14,0.959,0.007,-49.341,-56.813,16.375,61.475,15.438,59.787,0.058,123,5.978,8,34,-0.527
0.058,-0.14,0.956,0.006,-49.516,-56.892,16.375,61.475,15.469,59.844,0.058,125,5.846,8,34,-0.422
0.055,-0.136,0.959,0.001,-49.868,-57.763,16.375,61.475,15.469,59.844,0.058,128,5.495,8,34,-0.334
0.058,-0.14,0.956,0.597,9.692,49.525,16.375,61.475,15.469,59.844,0.08,172,7.912,8,34,0.387
0.058,-0.136,0.959,0.031,-47.407,-53.569,16.375,61.475,15.469,59.844,0.055,129,5.626,8,34,-0.563
0.058,-0.14,0.952,0.596,9.56,49.051,16.375,61.475,15.469,59.844,0.077,175,7.604,8,34,0.404
0.058,-0.14,0.959,0.04,-45.912,-50.484,16,60.8,15.469,59.844,0.059,124,5.582,8,34,-0.387
0.058,-0.14,0.963,0.623,12.286,54.193,16,60.8,15.469,59.844,0.079,178,7.78,8,34,0.475
0.058,-0.136,0.948,0.611,10.352,50.158,16,60.8,15.469,59.844,0.078,173,7.648,8,34,0.527
0.058,-0.136,0.959,0.6,9.868,49.921,16,60.8,15.469,59.844,0.079,179,7.78,8,34,0.492
0.062,-0.14,0.956,0.002,-49.824,-57.684,16,60.8,15.469,59.844,0.056,129,5.319,8,34,-0.492
0.058,-0.14,0.956,0.62,12.066,53.481,16,60.8,15.469,59.844,0.08,187,8.176,8,34,0.475
0.062,-0.14,0.956,0.623,12.154,53.719,16,60.8,15.469,59.844,0.08,180,7.736,8,34,0.475
0.055,-0.132,0.948,0.622,12.242,53.956,16,60.8,15.469,59.844,0.08,174,7.604,8,34,0.475
0.062,-0.14,0.956,0.622,12.066,53.956,16,60.8,15.469,59.844,0.082,184,8.176,8,34,0.527
0.058,-0.144,0.952,0.002,-49.78,-57.684,16,60.8,15.469,59.844,0.057,125,5.407,8,34,-0.387
0.058,-0.136,0.956,0.622,11.934,53.719,16,60.8,15.469,59.844,0.081,185,8.044,8,34,0.457
0.058,-0.14,0.956,0.622,12.11,53.719,16,60.8,15.469,59.844,0.083,186,8.484,8,34,0.51
0.058,-0.14,0.956,0.621,12.066,53.798,16,60.8,15.469,59.844,0.081,179,8,8,34,0.422
0.058,-0.144,0.944,0.622,12.11,53.877,16,60.8,15.469,59.844,0.08,185,8,8,34,0.387
0.055,-0.14,0.956,0.623,12.286,54.035,16,60.8,15.469,59.844,0.081,179,7.78,8,34,0.44
0.058,-0.14,0.956,0.603,10.176,50.316,16,60.8,15.469,59.844,0.076,175,7.56,8,34,0.44
0.058,-0.136,0.959,0.011,-48.989,-56.259,16,60.8,15.469,59.844,0.053,132,5.978,8,34,-0.492
0.055,-0.136,0.959,0.007,-49.56,-56.971,16,60.8,15.469,59.844,0.058,136,5.846,8,34,-0.527
0.058,-0.136,0.956,0.01,-48.945,-56.022,16,60.8,15.469,59.844,0.058,127,6.242,8,34,-0.475
0.058,-0.14,-0.039,0.022,-49.341,-57.13,16,60.8,15.469,59.844,0.054,134,5.802,8,34,-0.44
0.058,-0.14,0.956,0.597,9.692,49.367,16,60.8,15.469,59.844,0.081,181,8.132,8,34,0.387
0.062,-0.14,0.956,0.138,-36.33,-33.473,16,60.8,15.469,59.844,0.061,137,5.934,8,34,-0.299
0.062,-0.14,0.956,0.138,-36.33,-33.473,16,60.8,15.469,59.844,0.061,137,5.934,8,34,-0.299
0.058,-0.14,0.956,0.624,12.286,54.035,16,60.8,15.469,59.844,0.08,188,8.132,8,34,0.422
0.058,-0.14,0.956,0.626,12.549,54.431,16,60.8,15.469,59.844,0.078,175,7.648,8,34,0.404
0.062,-0.14,0.959,0.618,12.066,53.877,16,60.8,15.469,59.844,0.08,179,7.912,8,34,0.457
0.062,-0.14,0.956,0.624,12.286,54.273,16,60.8,15.469,59.844,0.078,178,7.956,8,34,0.457
0.055,-0.136,0.956,0.038,-46.22,-51.116,16,60.8,15.469,59.844,0.06,135,5.934,8,34,-0.475
0.058,-0.14,0.956,0.626,12.462,54.273,16,60.8,15.469,59.844,0.078,182,8,8,34,0.422
0.058,-0.14,0.959,0.621,12.022,53.323,16,60.8,15.469,59.844,0.08,182,8.088,8,34,0.51
0.055,-0.14,0.959,0.625,12.374,54.193,16,60.8,15.469,59.844,0.081,182,7.912,8,34,0.422
0.058,-0.14,0.948,0.624,12.242,54.114,16,60.8,15.469,59.844,0.08,182,8.044,8,34,0.422
0.058,-0.14,0.956,0.625,12.462,54.352,16,60.8,15.469,59.844,0.079,178,7.912,8,34,0.475
0.062,-0.14,0.952,0.002,-49.824,-57.763,16,60.8,15.469,59.844,0.058,131,5.714,8,34,-0.422
0.062,-0.14,0.956,0.624,12.418,54.193,16,60.8,15.469,59.844,0.082,185,8.264,8,34,0.457
0.058,-0.14,0.944,0.001,-49.868,-57.842,16,60.8,15.469,59.844,0.056,129,5.451,8,34,-0.44
0.058,-0.136,0.956,0.605,10.44,50.87,16,60.8,15.469,59.844,0.085,188,8.352,8,34,0.404
0.055,-0.136,0.956,0.002,-49.824,-57.763,16,60.8,15.469,59.844,0.057,131,5.758,8,34,-0.457
0.055,-0.14,0.956,0.16,-34.088,-29.516,16,60.8,15.469,59.844,0.063,144,6.418,8,34,-0.316
0.058,-0.136,0.963,0.6,9.736,49.604,16,60.8,15.469,59.844,0.082,187,8.22,8,34,0.492
0.058,-0.14,0.956,0.599,9.692,49.367,16,60.8,15.469,59.844,0.076,177,7.648,8,34,0.404
0.058,-0.144,0.956,0.625,12.33,54.114,16,60.8,15.469,59.844,0.076,175,7.604,8,34,0.457
0.058,-0.144,0.956,0.625,12.33,54.114,16,60.8,15.469,59.844,0.076,175,7.604,8,34,0.457
0.058,-0.14,0.959,0.626,12.549,54.352,16,60.8,15.469,59.844,0.08,180,7.912,8,34,0.492
0.058,-0.136,0.956,0.597,9.604,49.525,16,60.8,15.469,59.844,0.076,175,7.648,8,34,0.404
0.062,-0.14,0.952,0.177,-32.505,-26.51,16,60.8,15.5,59.9,0.064,143,6.33,8,34,-0.334
0.058,-0.14,0.956,0.173,-32.989,-27.697,16,60.8,15.5,59.9,0.061,143,6.198,8,34,-0.229
0.062,-0.14,0.948,0.174,-32.813,-27.301,16,60.8,15.5,59.9,0.063,139,6.33,8,34,-0.281
0.058,-0.136,0.959,0.174,-32.901,-27.064,16,60.8,15.5,59.9,0.061,144,6.374,8,34,-0.334
0.055,-0.14,0.956,0.622,12.066,53.798,16,60.8,15.5,59.9,0.078,187,7.912,8,34,0.475
0.058,-0.14,0.956,0.622,12.066,53.877,16,60.8,15.5,59.9,0.08,181,8.044,8,34,0.51
0.058,-0.14,0.956,0.022,-47.714,-53.807,16,60.8,15.5,59.9,0.055,132,5.714,8,34,-0.563
0.058,-0.14,0.952,0.623,12.198,53.64,16,60.8,15.5,59.9,0.077,176,7.604,8,34,0.44
0.058,-0.144,0.952,0.622,12.242,54.035,16,60.8,15.5,59.9,0.079,172,7.78,8,34,0.457
0.058,-0.14,0.959,0.622,12.198,53.877,16,60.8,15.5,59.9,0.077,182,7.692,0,0,0.387
0.062,-0.14,0.956,0.605,10.527,50.87,16,60.8,15.5,59.9,0.076,173,7.648,0,0,0.44
0.055,-1.135,0.948,0.132,-36.901,-34.58,16,60.8,15.5,59.9,0.059,125,5.802,0,0,-0.369
0.203,-0.39,0.975,0.601,10.088,50.316,16,60.8,15.5,59.9,0.113,253,11.385,0,0,0.299
0.144,-0.382,0.991,0.6,9.956,49.763,16,60.8,15.5,59.9,0.105,244,10.857,0,0,0.369
0.062,-0.238,0.967,0.622,12.154,53.719,16,60.8,15.5,59.9,0.104,234,10.418,0,0,0.457
-0.113,-0.362,1.01,0.622,12.11,53.798,16,60.8,15.5,59.9,0.102,238,10.286,0,0,0.387
-0.062,-0.273,0.971,0.596,9.648,49.288,16,60.8,15.5,59.9,0.091,206,9.055,0,0,0.387
0.047,-0.214,0.975,0.117,-38.571,-37.745,16,60.8,15.5,59.9,0.065,154,6.637,0,0,-0.369
0.191,-0.121,0.944,0.12,-38.264,-37.191,16,60.8,15.5,59.9,0.067,149,6.505,0,0,-0.492
0.023,-0.148,0.959,0.148,-35.538,-32.365,16,60.8,15.5,59.9,0.086,195,8.659,0,0,-0.475
0.023,-0.764,1.069,0.142,-35.802,-31.969,16,60.8,15.5,59.9,0.092,206,8.923,0,0,-0.229
-0.039,-0.074,0.924,0.124,-37.824,-36.479,16,60.8,15.5,59.9,0.079,178,7.868,0,0,-0.334
0.101,-0.062,0.944,0.073,-42.923,-45.262,16,60.8,15.5,59.9,0.073,164,7.209,0,0,-0.527
0.117,-0.004,0.936,0.095,-40.813,-41.938,16,60.8,15.5,59.9,0.073,165,7.385,0,0,-0.334
-0.959,1.985,0.733,0.089,-41.209,-42.176,16,60.8,15.5,59.9,0.082,178,8,0,0,-0.369
1.053,-2.129,1.158,0.608,10.747,51.345,16,60.8,15.5,59.9,0.102,232,10.11,0,0,0.334
0.105,0.094,0.924,0.1,-40.154,-40.356,16,60.8,15.5,59.9,0.093,207,9.055,0,0,-0.316
0.137,-0.187,0.928,0.084,-41.912,-43.204,16,60.8,15.5,59.9,0.087,208,8.484,0,0,0.123
0.261,-0.035,0.932,0.609,10.747,51.424,16,60.8,15.5,59.9,0.106,241,10.769,0,0,0.352
0.066,0.125,0.916,0.008,-49.165,-56.576,16,60.8,15.5,59.9,0.08,176,7.692,0,0,-0.422
0.07,-0.132,0.94,0.608,10.747,51.187,16,60.8,15.5,59.9,0.087,191,8.571,0,0,0.369
0.012,-0.265,0.975,0.625,12.505,54.352,16,60.8,15.5,59.9,0.086,197,8.747,8,34,0.44
0.195,-0.16,0.979,0.624,12.286,54.193,16,60.8,15.5,59.9,0.105,243,10.505,8,34,0.422
0.012,-0.335,1.006,0.624,12.33,54.114,16,60.8,15.5,59.9,0.108,243,10.813,8,34,0.527
-0.023,-0.959,1.006,0.001,-49.868,-57.763,16,60.8,15.5,59.9,0.079,179,7.956,8,34,-0.545
-0.004,-0.218,0.948,0.603,10.132,50.158,16,60.8,15.5,59.9,0.091,209,8.835,8,34,0.422
0.101,-0.058,0.905,0.004,-49.78,-57.446,16,60.8,15.5,59.9,0.078,174,7.56,8,34,-0.686
0.495,-0.655,1.006,0.002,-49.648,-57.684,16,60.8,15.5,59.9,0.083,187,8.044,8,34,-0.44
0.292,-0.542,0.842,0.001,-49.824,-57.684,16,60.8,15.5,59.9,0.079,174,7.824,8,34,-0.193
0.386,-0.136,0.854,0.002,-49.78,-57.684,16,60.8,15.5,59.9,0.091,205,9.011,8,34,-0.44
0.487,-0.452,0.971,0.626,12.593,54.589,16,60.8,15.5,59.9,0.124,281,12.176,8,34,0.422
-0.367,-0.132,0.936,0.002,-49.824,-57.684,16,60.8,15.5,59.9,0.091,205,9.011,8,34,-0.475
0.055,-0.136,0.952,0.001,-49.824,-57.684,16,60.8,15.5,59.9,0.062,144,6.286,8,34,-0.457
0.058,-0.14,0.956,0.001,-49.868,-57.763,16,60.8,15.5,59.9,0.057,133,5.714,8,34,-0.404
0.062,-0.144,0.959,0.002,-49.868,-57.604,16,60.8,15.5,59.9,0.056,133,5.714,8,34,-0.422
0.062,-0.144,0.959,0.002,-49.868,-57.604,16,60.8,15.5,59.9,0.056,123,5.626,8,34,-0.422
0.062,-0.136,0.956,0.124,-38,-36.875,16,60.8,15.5,59.9,0.058,135,6.022,8,34,-0.316
0.055,-0.136,0.956,0.608,10.747,51.424,16,60.8,15.5,59.9,0.079,173,7.692,8,34,0.369
0.058,-0.14,0.959,0.609,10.879,51.424,16,60.8,15.5,59.9,0.079,178,7.692,8,34,0.316
0.058,-0.144,0.948,0.625,12.505,54.431,16,60.8,15.5,59.9,0.08,183,8.176,8,34,0.44
0.055,-0.136,1.95,0.605,10.396,50.633,16,60.8,15.5,59.9,0.08,183,8.044,8,34,0.334
0.058,-0.136,0.956,0.627,12.593,54.668,16,60.8,15.5,59.9,0.079,177,7.868,8,34,0.404
0.058,-0.14,0.956,0.604,10.264,50.554,16,60.8,15.5,59.9,0.079,176,7.912,8,34,0.457
0.051,-0.136,0.952,0.002,-49.78,-57.525,16,60.8,15.5,59.9,0.059,130,5.846,8,34,-0.387
0.055,-0.14,0.959,0.004,-49.604,-57.209,16,60.8,15.5,59.9,0.061,131,5.978,8,34,-0.492
0.058,-0.136,0.963,0.005,-49.429,-56.971,16,60.8,15.5,59.9,0.057,133,5.89,8,34,-0.545
0.055,-0.14,0.952,0.011,-48.857,-56.022,16,60.8,15.5,59.9,0.055,129,5.846,8,34,-0.492
0.058,-0.14,0.948,0.623,12.286,54.193,16.062,60.912,15.5,59.9,0.084,189,8.571,8,34,0.475
0.058,-0.14,0.952,0.026,-47.363,-53.174,16.062,60.912,15.5,59.9,0.057,122,5.407,8,34,-0.545
0.058,-0.14,0.956,0.014,-48.637,-55.547,16.062,60.912,15.5,59.9,0.058,128,5.714,8,34,-0.492
0.055,-0.14,0.944,0.014,-48.681,-55.626,16.062,60.912,15.5,59.9,0.056,131,5.934,8,34,-0.475
0.058,-0.136,0.948,0.025,-47.582,-53.727,16.062,60.912,15.5,59.9,0.058,127,5.802,8,34,-0.475
0.058,-0.14,0.959,0.624,12.242,54.273,16.062,60.912,15.5,59.9,0.081,186,8.132,8,34,0.492
0.058,-0.14,0.959,0.624,12.242,54.273,16.062,60.912,15.5,59.9,0.081,186,8.132,8,34,0.492
0.058,-0.14,0.956,0.011,-48.945,-56.18,16.062,60.912,15.5,59.9,0.056,126,5.67,8,34,-0.598
0.058,-0.136,0.956,0.011,-48.945,-56.101,16.062,60.912,15.5,59.9,0.058,127,5.714,8,34,-0.492
0.055,-0.14,0.948,0.01,-49.033,-56.338,16.062,60.912,15.5,59.9,0.056,126,5.495,8,34,-0.58
0.055,-0.14,0.952,0.625,12.33,54.193,16.062,60.912,15.5,59.9,0.082,188,8.615,8,34,0.475
0.058,-0.136,0.952,0.624,12.33,54.035,16.062,60.912,15.5,59.9,0.077,176,8,8,34,0.369
0.058,-0.14,0.959,0.002,-49.78,-57.604,16.062,60.912,15.5,59.9,0.056,128,5.538,8,34,-0.475
0.058,-0.136,0.956,0.624,12.286,54.193,16.062,60.912,15.5,59.9,0.081,185,8.22,8,34,0.404
0.058,-0.14,0.952,0.605,10.484,50.633,16.062,60.912,15.5,59.9,0.076,175,7.692,8,34,0.369
0.055,-0.136,0.952,0.623,12.374,54.193,16.062,60.912,15.5,59.9,0.081,179,8.22,8,34,0.475
0.055,-0.148,0.956,0.623,12.374,54.035,16.062,60.912,15.5,59.9,0.078,179,7.824,8,34,0.457
0.062,-0.14,0.952,0.604,10.264,50.396,16.062,60.912,15.5,59.9,0.078,177,7.736,8,34,0.387
0.055,-0.14,0.952,0.009,-49.121,-56.418,16.062,60.912,15.5,59.9,0.056,129,5.451,8,34,-0.58
0.058,-0.144,0.956,0.623,12.286,54.035,16.062,60.912,15.5,59.9,0.085,189,8.308,8,34,0.457
0.058,-0.132,0.956,0.624,11.275,53.64,16.062,60.912,15.5,59.9,0.082,184,8.176,8,34,0.545
0.055,-0.136,0.959,0.627,12.593,54.51,16.062,60.912,15.5,59.9,0.08,182,8,8,34,0.44
0.058,-0.14,0.956,0.625,12.505,54.51,16.062,60.912,15.5,59.9,0.08,184,8.088,8,34,0.404
0.062,-0.14,0.956,0.625,12.593,54.352,16.062,60.912,15.5,59.9,0.078,178,7.824,8,34,0.422
0.058,-0.14,0.956,0.08,-42.132,-44.549,16.062,60.912,15.5,59.9,0.06,131,5.758,8,34,-0.422
0.051,-0.132,0.963,0.078,-42.22,-43.996,16.062,60.912,15.5,59.9,0.059,132,5.802,8,34,-0.51
0.058,-0.14,0.952,0.626,12.549,54.747,16.062,60.912,15.5,59.9,0.078,179,7.912,8,34,0.44
0.055,-0.14,0.959,0.598,9.692,49.604,16.062,60.912,15.5,59.9,0.077,178,7.604,8,34,0.422
0.058,-0.144,0.952,0.626,12.418,54.431,16.062,60.912,15.5,59.9,0.081,186,8,8,34,0.457
0.07,-0.136,0.948,0.603,10.22,50.237,16.062,60.912,15.5,59.9,0.077,175,7.956,8,34,0.404
0.058,-0.136,0.959,0.032,-49.473,-56.655,16.062,60.912,15.5,59.9,0.057,132,5.714,8,34,-0.457
0.055,-0.14,0.952,0.627,12.637,54.668,16.062,60.912,15.5,59.9,0.079,179,7.824,8,34,0.475
0.062,-0.144,0.956,0.002,-49.78,-57.604,16.062,60.912,15.5,59.9,0.058,134,5.802,8,34,-0.475
0.058,-0.14,0.952,0.006,-49.253,-56.813,16.062,60.912,15.5,59.9,0.057,127,5.538,8,34,-0.457
0.043,-0.144,0.956,0.007,-49.209,-56.734,16.062,60.912,15.5,59.9,0.058,132,5.758,8,34,-0.404
0.055,-0.14,0.956,0.607,10.659,51.345,16.062,60.912,15.5,59.9,0.082,191,8.176,8,34,0.457
0.058,-0.14,0.959,0.167,-33.56,-28.251,16.062,60.912,15.5,59.9,0.063,140,6.505,8,34,-0.264
0.058,-0.14,0.959,0.626,12.593,54.668,16.062,60.912,15.5,59.9,0.081,178,7.956,8,34,0.422
0.055,-0.14,0.956,0.156,-34.527,-30.229,16.062,60.912,15.5,59.9,0.06,139,6.286,8,34,-0.281
0.055,-0.136,0.932,0.627,12.681,54.826,16.062,60.912,15.5,59.9,0.081,178,7.868,8,34,0.422
0.062,-0.14,0.956,0.603,10.22,50.475,16.062,60.912,15.5,59.9,0.079,180,7.868,8,34,0.352
0.062,-0.132,0.959,0.626,12.549,54.589,16.062,60.912,15.5,59.9,0.076,173,7.736,8,34,0.51
0.058,-0.136,0.948,0.079,-42.044,-43.442,16.062,60.912,15.5,59.9,0.058,140,5.934,8,34,-0.475
0.058,-0.136,0.956,0.08,-42.044,-43.363,16.062,60.912,15.5,59.9,0.065,145,6.374,8,34,-0.475
0.062,-0.14,0.956,0.06,-44.11,-47.16,16.062,60.912,15.5,59.9,0.061,130,5.758,8,34,-0.598
0.055,-0.14,0.959,0.084,-41.648,-42.413,16.062,60.912,15.5,59.9,0.06,129,5.67,8,34,-0.457
0.051,-0.14,0.948,0.086,-41.736,-43.363,16.062,60.912,15.5,59.9,0.056,130,5.626,8,34,-0.563
0.058,-0.136,0.952,0.04,-46.176,-51.512,16.062,60.912,15.5,59.9,0.053,127,5.582,8,34,-0.545
0.058,-0.14,0.948,0.062,-43.89,-46.923,16.062,60.912,15.5,59.9,0.056,125,5.67,8,34,-0.615
0.062,-0.14,0.952,0.061,-43.89,-47.002,16.062,60.912,15.5,59.9,0.057,129,6.066,8,34,-0.475
0.058,-0.14,0.956,0.043,-46.132,-51.354,15.969,60.744,15.5,59.9,0.06,136,6.286,8,34,-0.44
0.055,-0.136,0.956,0.058,-44.769,-49.059,15.969,60.744,15.5,59.9,0.059,140,5.934,8,34,-0.633
0.062,-0.14,0.959,0.625,12.242,54.114,15.969,60.744,15.5,59.9,0.079,181,8.044,8,34,0.492
0.051,-0.14,0.948,0.607,10.615,50.791,15.969,60.744,15.5,59.9,0.078,181,7.78,8,34,0.492
0.055,-0.144,0.952,0.624,12.462,54.273,15.969,60.744,15.5,59.9,0.081,183,8.176,0,0,0.44
0.058,-0.144,0.956,0.01,-48.989,-56.18,15.969,60.744,15.5,59.9,0.057,130,5.802,0,0,-0.492
0.062,-0.136,0.952,0.624,12.286,54.035,15.969,60.744,15.5,59.9,0.08,187,8.088,0,0,0.369
0.058,-0.136,0.956,0.01,-48.989,-56.18,15.969,60.744,15.5,59.9,0.057,133,5.626,0,0,-0.545
0.058,-0.14,0.959,0.01,-48.989,-56.101,15.969,60.744,15.5,59.9,0.055,129,5.538,0,0,-0.51
0.058,-0.14,0.948,0.015,-48.549,-55.31,15.969,60.744,15.5,59.9,0.059,137,5.934,0,0,-0.563
0.058,-0.14,0.956,0.014,-48.593,-55.389,15.969,60.744,15.5,59.9,0.064,141,6.286,0,0,-0.545
0.055,-0.14,0.952,0.625,12.242,54.035,15.969,60.744,15.5,59.9,0.078,179,7.56,0,0,0.404
0.058,-0.14,0.952,0.6,10,50.079,15.969,60.744,15.5,59.9,0.082,182,8.176,0,0,0.387
0.058,-0.132,0.948,0.6,9.868,49.684,15.969,60.744,15.5,59.9,0.075,174,7.648,0,0,0.281
0.058,-0.14,0.959,0.598,9.692,49.288,15.969,60.744,15.5,59.9,0.077,179,7.78,0,0,0.369
0.062,-0.14,0.956,0.624,12.286,54.114,15.969,60.744,15.5,59.9,0.08,179,7.956,0,0,0.475
0.055,-0.14,0.959,0.596,9.473,49.051,15.969,60.744,15.5,59.9,0.079,177,7.78,0,0,0.387
0.055,-0.14,0.948,0.596,9.429,48.892,15.969,60.744,15.5,59.9,0.076,177,7.692,0,0,0.404
0.055,-0.14,0.948,0.596,9.429,48.892,15.969,60.744,15.5,59.9,0.076,177,7.692,0,0,0.404
0.062,-0.14,0.956,0.596,9.56,49.367,15.969,60.744,15.5,59.9,0.075,170,7.604,0,0,0.44
0.058,-0.14,0.956,0.597,9.648,49.446,15.969,60.744,15.5,59.9,0.075,170,7.604,0,0,0.404
0.062,-0.14,0.959,0.021,-47.89,-54.202,15.969,60.744,15.5,59.9,0.056,129,5.802,0,0,-0.51
0.058,-0.14,0.956,0.625,12.418,54.431,15.969,60.744,15.5,59.9,0.076,181,7.736,0,0,0.492
0.058,-0.14,0.956,0.604,10.308,50.554,15.969,60.744,15.5,59.9,0.077,180,7.912,0,0,0.387
