Accel_X,Accel_Y,Accel_Z,Cont_TempV,Cont_TempDegC,Cont_TempDegF,IF_Temp_ObjDegC,IF_Temp_ObjDegF,IF_Temp_LocDegC,IF_Temp_LocDegF,SoundV,SoundRaw,SoundScl,RPM_Hz,RPM,Current
0,0,0,0,0,0,0,0,0,0,0,0,0,1,4,0
0.066,-0.128,0.959,0.678,17.736,64.004,14.812,58.662,20.375,68.675,0.087,197,8.659,1,4,0.545
0.066,-0.144,0.967,0.679,17.736,64.004,14.812,58.662,20.375,68.675,0.082,189,8.176,1,4,0.51
0.062,-0.128,0.963,0.678,17.868,64.004,14.812,58.662,20.375,68.675,0.084,190,8.396,1,4,0.51
0.062,-0.124,0.963,0.004,-49.692,-57.446,14.812,58.662,20.375,68.675,0.062,140,6.286,1,4,-0.492
0.066,-0.128,0.963,0.004,-49.648,-57.367,14.812,58.662,20.375,68.675,0.062,140,6.022,1,4,-0.492
0.066,-0.128,0.963,0.003,-49.78,-57.604,14.812,58.662,20.375,68.675,0.062,145,6.242,1,4,-0.492
0.062,-0.124,0.963,0.004,-49.648,-57.367,14.812,58.662,20.375,68.675,0.062,137,6.154,1,4,-0.457
0.066,-0.136,0.963,0.003,-49.692,-57.525,14.812,58.662,20.375,68.675,0.062,142,6.154,1,4,-0.422
0.062,-0.132,0.963,0.652,15.187,59.257,14.812,58.662,20.375,68.675,0.084,189,8.396,1,4,0.475
0.066,-0.124,0.963,0.667,16.637,61.868,14.812,58.662,20.375,68.675,0.082,191,8.308,1,4,0.492
0.066,-0.128,0.956,0.003,-49.78,-57.604,14.812,58.662,20.375,68.675,0.063,145,6.374,1,4,-0.387
0.066,-0.128,0.967,0.003,-49.692,-57.446,14.812,58.662,20.375,68.675,0.059,135,6.11,1,4,-0.527
0.066,-0.132,0.959,0.679,17.78,64.163,14.812,58.662,20.375,68.675,0.085,195,8.571,1,4,0.563
0.062,-0.128,0.963,0.003,-49.648,-57.288,14.812,58.662,20.375,68.675,0.065,147,6.681,1,4,-0.422
0.066,-0.124,0.967,0.679,17.868,64.084,14.812,58.662,20.375,68.675,0.084,189,8.484,1,4,0.545
0.062,-0.128,0.963,0.138,-36.549,-34.026,14.812,58.662,20.375,68.675,0.065,149,6.637,1,4,-0.334
0.055,-0.124,0.956,0.67,16.813,62.343,14.812,58.662,20.375,68.675,0.088,196,8.791,1,4,0.527
0.066,-0.128,0.967,0.678,17.78,64.004,14.812,58.662,20.375,68.675,0.088,200,8.571,1,4,0.492
0.066,-0.128,0.959,0.651,15.055,59.02,14.812,58.662,20.375,68.675,0.084,190,8.615,1,4,0.492
0.066,-0.132,0.963,0.678,17.648,63.846,14.812,58.662,20.375,68.675,0.082,189,8.264,1,4,0.527
0.066,-0.132,0.967,0.679,17.824,64.004,14.812,58.662,20.375,68.675,0.087,195,8.527,1,4,0.563
0.062,-0.128,0.959,0.062,-44.286,-48.031,14.812,58.662,20.375,68.675,0.063,138,5.802,1,4,-0.545
0.066,-0.128,0.959,0.678,17.736,63.767,14.812,58.662,20.375,68.675,0.084,195,8.615,1,4,0.545
0.066,-0.128,0.963,0.668,16.725,62.264,14.812,58.662,20.375,68.675,0.084,195,8.484,1,4,0.527
0.066,-0.124,0.959,0.676,17.604,63.846,14.812,58.662,20.375,68.675,0.086,192,8.352,1,4,0.58
0.062,-0.121,0.959,0.653,15.231,59.336,14.812,58.662,20.375,68.675,0.084,189,8.396,1,4,0.475
0.062,-0.128,0.963,0.657,15.714,60.127,14.812,58.662,20.375,68.675,0.084,187,8.396,1,4,0.527
0.066,-0.132,0.963,0.025,-47.626,-53.807,14.812,58.662,20.375,68.675,0.065,144,6.374,1,4,-0.44
0.066,-0.132,0.975,0.678,17.736,63.925,14.812,58.662,20.375,68.675,0.084,190,8.396,1,4,0.527
0.066,-0.128,0.963,0.022,-47.758,-54.044,14.812,58.662,20.375,68.675,0.06,147,5.758,1,4,-0.475
0.066,-0.124,0.956,0.022,-47.934,-54.123,14.812,58.662,20.375,68.675,0.061,134,5.89,1,4,-0.475
0.066,-0.124,0.959,0.668,16.725,62.026,14.812,58.662,20.375,68.675,0.085,198,8.835,1,4,0.387
0.07,-0.132,0.963,0.677,17.692,63.846,14.812,58.662,20.375,68.675,0.084,188,8.44,1,4,0.58
0.07,-0.132,0.963,0.677,17.692,63.846,14.812,58.662,20.375,68.675,0.084,188,8.44,1,4,0.58
0.066,-0.124,0.956,0.122,-38,-36.479,14.812,58.662,20.406,68.731,0.062,141,6.242,1,4,-0.369
0.062,-0.132,0.959,0.104,-39.89,-39.96,14.812,58.662,20.406,68.731,0.062,150,6.022,1,4,-0.334
0.066,-0.132,0.956,0.106,-39.231,-38.695,14.812,58.662,20.406,68.731,0.062,142,6.11,1,4,-0.387
0.066,-0.128,0.963,0.678,17.736,63.925,14.812,58.662,20.406,68.731,0.086,196,8.615,1,4,0.475
0.066,-0.124,0.967,0.036,-46.571,-51.987,14.812,58.662,20.406,68.731,0.062,139,6.154,1,4,-0.492
0.066,-0.132,0.967,0.04,-46.176,-50.958,14.156,57.481,20.406,68.731,0.059,135,5.978,1,4,-0.492
0.062,-0.124,0.963,0.032,-46.967,-52.699,14.156,57.481,20.406,68.731,0.062,143,6.198,1,4,-0.58
0.062,-0.128,0.963,0.044,-45.78,-50.721,14.156,57.481,20.406,68.731,0.061,137,5.934,1,4,-0.527
0.066,-0.132,0.963,0.042,-46,-50.879,14.156,57.481,20.406,68.731,0.062,137,6.198,1,4,-0.58
0.066,-0.124,0.956,0.044,-45.824,-50.642,14.156,57.481,20.406,68.731,0.065,144,6.11,1,4,-0.44
0.062,-0.124,0.963,0.679,17.824,64.163,14.156,57.481,20.406,68.731,0.084,196,8.527,1,4,0.51
0.07,-0.132,0.963,0.004,-49.648,-57.367,14.156,57.481,20.406,68.731,0.062,140,6.198,1,4,-0.457
0.062,-0.128,0.959,0.666,16.637,62.026,14.156,57.481,20.406,68.731,0.087,194,8.615,1,4,0.563
0.066,-0.128,0.959,0.679,17.78,64.084,14.156,57.481,20.406,68.731,0.087,193,8.527,1,4,0.492
0.07,-0.128,0.959,0.677,17.692,64.004,14.156,57.481,20.406,68.731,0.086,193,8.615,1,4,0.457
0.062,-0.132,0.959,0.678,17.78,63.925,14.156,57.481,20.406,68.731,0.083,194,8.396,1,4,0.492
0.066,-0.132,0.959,0.002,-49.78,-57.684,14.156,57.481,20.406,68.731,0.06,141,6.022,1,4,-0.44
0.07,-0.128,0.963,0.003,-49.736,-57.604,14.156,57.481,20.406,68.731,0.061,144,6.418,1,4,-0.457
0.066,-0.121,0.936,0.003,-49.736,-57.604,14.156,57.481,20.406,68.731,0.06,139,6.11,1,4,-0.44
0.066,-0.128,0.959,0.004,-49.648,-57.367,14.156,57.481,20.406,68.731,0.061,136,6.066,1,4,-0.51
0.062,-0.128,0.963,0.679,17.824,64.084,14.156,57.481,20.406,68.731,0.082,189,8.22,1,4,0.545
0.07,-0.132,0.959,0.677,17.736,63.925,14.156,57.481,20.406,68.731,0.085,191,8.352,1,4,0.545
0.066,-0.128,0.963,0.677,17.78,63.925,14.156,57.481,20.406,68.731,0.082,191,8.352,1,4,0.492
0.062,-0.124,0.963,0.678,17.692,63.846,14.156,57.481,20.406,68.731,0.082,192,8.352,1,4,0.545
0.066,-0.132,0.963,0.678,17.736,63.925,14.156,57.481,20.406,68.731,0.086,194,8.615,1,4,0.422
0.066,-0.136,0.963,0.675,17.385,63.292,14.156,57.481,20.406,68.731,0.082,188,8.088,1,4,0.44
0.066,-0.124,0.959,0.678,17.78,63.846,14.156,57.481,20.406,68.731,0.083,192,8.264,1,4,0.527
0.058,-0.121,0.963,0.003,-49.736,-57.446,14.156,57.481,20.406,68.731,0.062,143,6.066,1,4,-0.492
0.066,-0.128,0.948,0.003,-49.736,-57.604,14.156,57.481,20.406,68.731,0.06,145,6.286,1,4,-0.246
0.062,-0.128,0.959,0.003,-49.736,-57.446,14.156,57.481,20.406,68.731,0.064,144,6.33,1,4,-0.563
0.062,-0.128,0.963,0.003,-49.78,-57.525,14.156,57.481,20.406,68.731,0.063,141,6.33,1,4,-0.44
0.07,-0.128,0.959,0.003,-49.692,-57.525,14.156,57.481,20.406,68.731,0.061,127,5.582,1,4,-0.457
0.066,-0.128,0.963,0.003,-49.736,-57.525,14.156,57.481,20.406,68.731,0.062,138,6.33,1,4,-0.387
0.062,-0.124,0.963,0.679,17.78,63.925,14.156,57.481,20.406,68.731,0.084,191,8.352,1,4,0.563
0.062,-0.128,0.963,0.678,17.736,63.767,14.156,57.481,20.406,68.731,0.086,195,8.571,1,4,0.51
0.062,-0.124,0.963,0.666,16.549,61.71,14.156,57.481,20.406,68.731,0.085,193,8.571,1,4,0.51
0.066,-0.128,0.963,0.678,17.692,63.688,14.156,57.481,20.406,68.731,0.084,189,8.615,1,4,0.492
0.066,-0.128,0.959,0.679,17.648,63.846,14.156,57.481,20.406,68.731,0.082,186,8.176,1,4,0.51
0.055,-0.132,0.963,0.677,17.516,63.688,14.156,57.481,20.406,68.731,0.086,194,8.659,1,4,0.545
0.066,-0.124,0.963,0.665,16.462,61.71,14.156,57.481,20.406,68.731,0.086,192,8.44,1,4,0.51
0.062,-0.124,0.963,0.003,-49.736,-57.604,14.156,57.481,20.406,68.731,0.062,137,6.11,1,4,-0.457
0.062,-0.132,0.963,0.003,-49.736,-57.525,14.156,57.481,20.406,68.731,0.061,142,6.022,0,0,-0.492
0.07,-0.132,0.959,0.003,-49.78,-57.604,14.156,57.481,20.406,68.731,0.06,135,6.242,0,0,-0.316
0.07,-0.128,0.959,0.003,-49.736,-57.525,14.156,57.481,20.406,68.731,0.06,138,5.978,0,0,-0.475
0.058,-0.128,0.959,0.002,-49.78,-57.604,14.156,57.481,20.406,68.731,0.061,138,6.242,0,0,-0.404
0.066,-0.128,0.959,0.663,16.242,61.235,14.156,57.481,20.406,68.731,0.084,189,8.352,0,0,0.527
0.066,-0.132,0.963,0.665,16.462,61.552,14.156,57.481,20.406,68.731,0.083,189,8.308,0,0,0.422
0.062,-0.132,0.963,0.671,17.121,62.738,14.156,57.481,20.406,68.731,0.086,194,8.703,0,0,0.527
0.066,-0.124,0.952,0.677,17.692,63.925,14.156,57.481,20.406,68.731,0.085,194,8.352,0,0,0.58
0.062,-0.128,0.963,0.665,16.462,61.71,14.156,57.481,20.406,68.731,0.082,187,8.22,0,0,0.492
0.066,-0.132,0.963,0.671,17.033,62.659,14.156,57.481,20.406,68.731,0.082,188,8.308,0,0,0.457
0.066,-0.132,0.959,0.678,17.736,63.846,14.156,57.481,20.469,68.844,0.084,193,8.44,0,0,0.457
0.066,-0.121,0.959,0.678,17.648,63.688,14.156,57.481,20.469,68.844,0.084,188,8.264,0,0,0.51
0.066,-0.128,0.959,0.678,17.692,63.925,14.156,57.481,20.469,68.844,0.085,194,8.571,0,0,0.492
0.066,-0.128,0.944,0.672,16.989,62.501,14.156,57.481,20.469,68.844,0.08,189,8,0,0,0.475
0.066,-0.128,0.944,0.672,16.989,62.501,14.156,57.481,20.469,68.844,0.08,189,8,0,0,0.475
0.07,-0.14,0.944,0.677,17.692,63.688,14.156,57.481,20.469,68.844,0.081,193,8.396,0,0,0.475
0.062,-0.124,0.963,0.004,-49.56,-57.209,13.969,57.144,20.469,68.844,0.058,135,6.022,0,0,-0.404
0.062,-0.132,0.956,0.004,-49.516,-57.051,13.969,57.144,20.469,68.844,0.06,135,6.198,0,0,-0.387
0.062,-0.128,0.959,0.004,-49.56,-57.13,13.969,57.144,20.469,68.844,0.06,140,6.066,0,0,-0.422
0.066,-0.128,0.956,0.004,-49.604,-57.13,13.969,57.144,20.469,68.844,0.058,134,5.802,0,0,-0.404
0.066,-0.128,0.971,0.005,-49.516,-57.13,13.969,57.144,20.469,68.844,0.059,132,5.802,0,0,-0.387
0.062,-0.132,0.963,0.665,16.418,61.71,13.969,57.144,20.469,68.844,0.084,191,8.396,0,0,0.527
0.066,-0.128,0.959,0.004,-49.648,-57.367,13.969,57.144,20.469,68.844,0.06,138,5.846,0,0,-0.44
0.07,-0.128,0.963,0.679,17.824,64.004,13.969,57.144,20.469,68.844,0.084,192,8.484,0,0,0.51
0.062,-0.124,0.963,0.004,-49.648,-57.446,13.969,57.144,20.469,68.844,0.059,140,6.198,0,0,-0.475
0.062,-0.128,0.963,0.004,-49.648,-57.288,13.969,57.144,20.469,68.844,0.062,143,6.418,0,0,-0.404
0.066,-0.124,0.963,0.004,-49.648,-57.367,13.969,57.144,20.469,68.844,0.06,139,5.934,0,0,-0.527
0.07,-0.109,0.959,0.677,17.648,63.925,13.969,57.144,20.469,68.844,0.084,188,8.308,0,0,0.475
0.07,-0.132,0.967,0.679,17.78,64.004,13.969,57.144,20.469,68.844,0.083,185,8.088,0,0,0.51
0.07,-0.128,0.963,0.003,-49.692,-57.525,13.969,57.144,20.469,68.844,0.06,133,5.846,0,0,-0.475
0.062,-0.128,0.959,0.003,-49.736,-57.525,13.969,57.144,20.469,68.844,0.058,138,6.066,0,0,-0.387
0.062,-0.132,0.963,0.003,-49.736,-57.604,13.969,57.144,20.469,68.844,0.062,138,6.154,0,0,-0.51
0.066,-0.132,0.963,0.677,17.78,63.846,13.969,57.144,20.469,68.844,0.086,195,8.615,0,0,0.563
0.062,-0.124,0.963,0.678,17.78,64.084,13.969,57.144,20.469,68.844,0.085,191,8.571,0,0,0.545
0.062,-0.132,0.963,0.679,17.824,63.846,13.969,57.144,20.469,68.844,0.083,186,8.22,0,0,0.527
0.062,-0.132,0.963,0.679,17.824,63.846,13.969,57.144,20.469,68.844,0.083,186,8.22,0,0,0.527
0.066,-0.132,0.959,0.677,17.824,63.925,13.969,57.144,20.469,68.844,0.081,185,8.176,0,0,0.545
0.066,-0.124,0.963,0.677,17.736,64.084,13.969,57.144,20.469,68.844,0.085,193,8.484,0,0,0.51
0.066,-0.128,0.963,0.679,17.78,64.004,13.969,57.144,20.469,68.844,0.085,194,8.527,0,0,0.545
0.066,-0.132,0.963,0.005,-49.516,-57.13,13.969,57.144,20.469,68.844,0.058,137,5.802,0,0,-0.404
0.066,-0.128,0.959,0.677,17.78,64.004,13.969,57.144,20.469,68.844,0.087,194,8.527,0,0,0.527
0.066,-0.128,0.963,0.005,-49.516,-57.13,13.969,57.144,20.469,68.844,0.058,135,6.11,0,0,-0.422
0.066,-0.121,0.963,0.006,-49.429,-56.892,13.969,57.144,20.469,68.844,0.065,145,6.286,0,0,-0.44
0.066,-0.132,0.959,0.006,-49.429,-57.051,13.969,57.144,20.469,68.844,0.06,133,6.022,0,0,-0.44
0.066,-0.124,0.944,0.006,-49.429,-56.971,13.969,57.144,20.469,68.844,0.061,135,5.978,0,0,-0.44
0.066,-0.128,0.959,0.004,-49.604,-57.367,13.969,57.144,20.469,68.844,0.059,132,5.626,0,0,-0.492
0.066,-0.128,0.959,0.004,-49.56,-57.209,13.969,57.144,20.469,68.844,0.062,140,5.978,0,0,-0.352
0.066,-0.128,0.959,0.004,-49.648,-57.367,13.969,57.144,20.469,68.844,0.065,138,6.022,0,0,-0.422
0.062,-0.128,0.963,0.004,-49.56,-57.13,13.969,57.144,20.469,68.844,0.062,139,6.066,0,0,-0.44
0.066,-0.128,0.963,0.004,-49.648,-57.367,13.969,57.144,20.469,68.844,0.061,143,6.242,0,0,-0.369
0.062,-0.128,0.963,0.663,16.242,61.235,13.969,57.144,20.469,68.844,0.084,193,8.44,0,0,0.475
0.066,-0.124,0.963,0.006,-49.385,-56.971,13.969,57.144,20.469,68.844,0.06,141,6.11,0,0,-0.422
0.066,-0.132,0.963,0.673,17.165,62.818,13.969,57.144,20.469,68.844,0.09,201,8.835,0,0,0.492
0.066,-0.128,0.959,0.676,17.56,63.53,13.969,57.144,20.469,68.844,0.087,202,8.835,0,0,0.51
0.066,-0.128,0.963,0.677,17.648,63.53,13.969,57.144,20.469,68.844,0.088,205,8.923,0,0,0.475
0.066,-0.128,0.963,0.676,17.648,63.767,13.969,57.144,20.469,68.844,0.088,201,8.879,0,0,0.58
0.066,-0.128,0.963,0.676,17.648,63.767,13.969,57.144,20.469,68.844,0.088,201,8.879,0,0,0.58
0.07,-0.132,0.959,0.006,-49.473,-57.051,13.969,57.144,20.469,68.844,0.067,149,6.462,0,0,-0.457
0.058,-0.124,0.963,0.006,-49.385,-57.051,13.969,57.144,20.469,68.844,0.065,145,6.593,0,0,-0.563
0.066,-0.128,0.967,0.005,-49.516,-57.051,13.969,57.144,20.469,68.844,0.065,153,6.725,0,0,-0.44
0.058,-0.128,0.956,0.004,-49.56,-57.13,13.969,57.144,20.469,68.844,0.066,153,6.637,0,0,-0.51
0.066,-0.136,0.959,0.662,16.198,60.919,13.969,57.144,20.5,68.9,0.081,186,8.088,0,0,0.51
0.074,-0.128,0.963,0.677,17.604,63.688,13.969,57.144,20.5,68.9,0.078,181,7.78,0,0,0.527
0.066,-0.136,1.954,0.676,17.692,63.767,13.969,57.144,20.5,68.9,0.08,182,8,0,0,0.475
0.062,-0.121,0.959,0.66,15.934,60.523,13.969,57.144,20.5,68.9,0.079,181,7.956,0,0,0.475
0.066,-0.121,0.963,0.676,17.692,63.846,13.969,57.144,20.5,68.9,0.082,182,8,0,0,0.475
0.066,-0.132,0.963,0.679,17.736,63.846,13.656,56.581,20.5,68.9,0.08,183,8.088,0,0,0.51
0.066,-0.128,0.959,0.677,17.648,63.925,13.656,56.581,20.5,68.9,0.083,185,8.22,0,0,0.527
0.066,-0.128,0.959,0.003,-49.692,-57.525,13.656,56.581,20.5,68.9,0.057,132,5.758,0,0,-0.492
0.058,-0.128,0.959,0.003,-49.736,-57.525,13.656,56.581,20.5,68.9,0.058,138,5.89,0,0,-0.457
0.058,-0.128,0.963,0.003,-49.78,-57.525,13.656,56.581,20.5,68.9,0.059,138,6.022,0,0,-0.422
0.062,-0.124,0.963,0.003,-49.736,-57.525,13.656,56.581,20.5,68.9,0.061,138,5.978,0,0,-0.44
0.062,-0.128,0.963,0.002,-49.78,-57.604,13.656,56.581,20.5,68.9,0.057,130,5.802,0,0,-0.316
0.062,-0.124,0.963,0.677,17.736,63.925,13.656,56.581,20.5,68.9,0.084,192,8.396,0,0,0.527
0.066,-0.128,0.963,0.002,-49.78,-57.604,13.656,56.581,20.5,68.9,0.057,129,5.714,0,0,-0.457
0.062,-0.128,0.959,0.677,17.692,63.846,13.656,56.581,20.5,68.9,0.084,190,8.352,0,0,0.527
0.062,-0.128,0.959,0.677,17.692,63.846,13.656,56.581,20.5,68.9,0.084,190,8.352,0,0,0.527
0.07,-0.128,-0.039,0.646,14.484,58.149,13.656,56.581,20.5,68.9,0.078,178,7.824,0,0,0.475
0.07,-0.128,0.963,0.652,15.187,59.099,13.656,56.581,20.5,68.9,0.081,184,8.044,0,0,0.457
0.07,-0.132,0.971,0.655,15.495,59.811,13.656,56.581,20.5,68.9,0.08,182,7.824,0,0,0.404
0.058,-0.128,0.963,0.002,-49.78,-57.604,13.656,56.581,20.5,68.9,0.057,126,5.67,0,0,-0.492
0.066,-0.132,0.963,0.001,-49.868,-57.604,13.656,56.581,20.5,68.9,0.056,128,5.802,0,0,-0.44
0.062,-0.124,0.963,0.002,-49.824,-57.684,13.656,56.581,20.5,68.9,0.059,137,5.934,0,0,-0.51
0.062,-0.124,0.963,0.002,-49.868,-57.763,13.656,56.581,20.5,68.9,0.058,134,5.846,0,0,-0.492
0.066,-0.128,0.963,0.002,-49.824,-57.763,13.656,56.581,20.5,68.9,0.058,136,5.846,0,0,-0.51
0.066,-0.128,0.963,0.677,17.736,64.004,13.656,56.581,20.5,68.9,0.082,186,8.132,0,0,0.527
0.066,-0.128,0.963,0.678,17.78,64.084,13.656,56.581,20.5,68.9,0.08,181,8.044,0,0,0.563
0.066,-0.128,0.959,0.003,-49.648,-57.446,13.656,56.581,20.5,68.9,0.057,127,5.582,0,0,-0.422
0.066,-0.136,0.959,0.679,17.78,64.004,13.656,56.581,20.5,68.9,0.08,184,8,0,0,0.51
0.066,-0.136,0.959,0.679,17.78,64.004,13.656,56.581,20.5,68.9,0.08,184,8,0,0,0.51
0.062,-0.132,0.959,0.003,-49.692,-57.525,13.656,56.581,20.5,68.9,0.058,137,6.022,0,0,-0.492
0.062,-0.128,0.959,0.002,-49.78,-57.604,13.656,56.581,20.5,68.9,0.06,136,5.846,0,0,-0.492
0.062,-0.128,0.959,0.002,-49.78,-57.604,13.656,56.581,20.5,68.9,0.06,136,5.846,0,0,-0.492
0.07,-0.136,-0.039,0.002,-49.78,-57.604,13.656,56.581,20.5,68.9,0.061,138,6.11,0,0,-0.475
0.062,-0.128,0.963,0.003,-49.692,-57.525,13.656,56.581,20.5,68.9,0.059,131,5.802,0,0,-0.44
0.058,-0.128,0.956,0.002,-49.868,-57.763,13.656,56.581,20.5,68.9,0.056,139,5.846,0,0,-0.457
0.062,-0.128,0.963,0.649,14.747,58.545,13.656,56.581,20.5,68.9,0.082,187,8.088,0,0,0.422
0.066,-0.132,0.959,0.65,14.967,58.941,13.656,56.581,20.5,68.9,0.084,184,7.956,0,0,0.457
0.066,-0.132,0.959,0.661,15.934,60.602,13.656,56.581,20.5,68.9,0.077,176,7.736,0,0,0.527
0.066,-0.128,0.959,0.001,-49.868,-57.684,13.656,56.581,20.5,68.9,0.056,134,5.626,0,0,-0.51
0.062,-0.128,0.959,0.003,-49.692,-57.446,13.656,56.581,20.5,68.9,0.058,129,5.582,0,0,-0.44
0.062,-0.128,0.963,0.003,-49.692,-57.604,13.656,56.581,20.5,68.9,0.057,128,5.451,0,0,-0.457
0.066,-0.128,0.963,0.002,-49.78,-57.604,13.656,56.581,20.5,68.9,0.059,136,5.67,0,0,-0.457
0.062,-0.124,0.963,0.003,-49.78,-57.604,13.656,56.581,20.5,68.9,0.058,132,5.714,0,0,-0.44
0.062,-0.128,0.959,0.002,-49.736,-57.604,13.656,56.581,20.5,68.9,0.061,141,5.978,0,0,-0.475
0.062,-0.132,0.959,0.002,-49.78,-57.525,13.656,56.581,20.5,68.9,0.058,133,5.978,0,0,-0.422
0.066,-0.128,0.963,0.002,-49.824,-57.604,13.656,56.581,20.5,68.9,0.061,138,6.154,0,0,-0.44
0.07,-0.132,0.963,0.002,-49.78,-57.684,13.656,56.581,20.5,68.9,0.057,128,5.626,0,0,-0.492
0.062,-0.128,0.963,0.651,15.099,59.178,13.656,56.581,20.5,68.9,0.082,182,7.956,0,0,0.475
0.062,-0.128,0.959,0.002,-49.824,-57.684,13.656,56.581,20.5,68.9,0.059,128,5.582,0,0,-0.492
0.066,-0.132,0.963,0.003,-49.78,-57.684,13.656,56.581,20.5,68.9,0.058,130,5.934,0,0,-0.457
0.07,-0.132,0.959,0.651,15.099,59.178,13.656,56.581,20.5,68.9,0.081,182,8.088,0,0,0.492
0.066,-0.132,0.959,0.658,15.802,60.444,13.656,56.581,20.531,68.956,0.085,189,8.396,0,0,0.51
0.066,-0.128,0.959,0.676,17.604,63.688,13.656,56.581,20.531,68.956,0.084,192,8.396,0,0,0.527
0.058,-0.132,0.963,0.003,-49.78,-57.604,13.656,56.581,20.531,68.956,0.055,128,5.451,0,0,-0.492
0.066,-0.128,0.963,0.003,-49.78,-57.604,13.656,56.581,20.531,68.956,0.057,126,5.495,0,0,-0.404
0.062,-0.128,0.963,0.002,-49.78,-57.684,14.406,57.931,20.531,68.956,0.06,140,5.846,0,0,-0.51
0.062,-0.124,0.956,0.002,-49.824,-57.763,14.406,57.931,20.531,68.956,0.064,142,6.462,0,0,-0.422
0.062,-0.128,0.963,0.002,-49.824,-57.604,14.406,57.931,20.531,68.956,0.057,132,5.846,0,0,-0.527
0.066,-0.128,0.963,0.002,-49.824,-57.684,14.406,57.931,20.531,68.956,0.057,133,5.758,0,0,-0.404
0.062,-0.124,0.956,0.655,15.451,59.336,14.406,57.931,20.531,68.956,0.08,184,8.044,0,0,0.492
0.066,-0.124,0.963,0.003,-49.736,-57.525,14.406,57.931,20.531,68.956,0.058,128,5.802,0,0,-0.422
0.062,-0.128,0.963,0.651,15.099,59.02,14.406,57.931,20.531,68.956,0.082,188,8.264,0,0,0.387
0.062,-0.121,0.967,0.678,17.78,63.925,14.406,57.931,20.531,68.956,0.078,184,7.912,0,0,0.492
0.066,-0.132,0.963,0.677,17.692,63.846,14.406,57.931,20.531,68.956,0.085,192,8.527,0,0,0.563
0.062,-0.128,0.959,0.678,17.78,63.925,14.406,57.931,20.531,68.956,0.08,181,7.956,0,0,0.475
0.062,-0.128,0.963,0.003,-49.78,-57.525,14.406,57.931,20.531,68.956,0.061,134,5.802,0,0,-0.457
0.066,-0.132,0.959,0.677,17.692,63.925,14.406,57.931,20.531,68.956,0.084,195,8.527,0,0,0.58
0.066,-0.124,0.963,0.002,-49.78,-57.525,14.406,57.931,20.531,68.956,0.058,131,5.67,0,0,-0.422
0.066,-0.132,0.959,0.002,-49.824,-57.684,14.406,57.931,20.531,68.956,0.062,141,6.066,0,0,-0.44
0.062,-0.124,0.959,0.002,-49.736,-57.525,14.406,57.931,20.531,68.956,0.056,127,5.89,0,0,-0.422
0.062,-0.124,0.959,0.002,-49.736,-57.525,14.406,57.931,20.531,68.956,0.056,127,5.89,0,0,-0.422
0.066,-0.128,0.963,0.679,17.78,64.084,14.406,57.931,20.531,68.956,0.08,183,8.044,0,0,0.527
0.066,-0.128,0.959,0.678,17.648,63.846,14.406,57.931,20.531,68.956,0.081,187,8.264,0,0,0.545
0.062,-0.124,0.959,0.002,-49.78,-57.525,14.406,57.931,20.531,68.956,0.057,129,5.67,0,0,-0.369
0.066,-0.124,0.963,0.003,-49.692,-57.446,14.406,57.931,20.531,68.956,0.065,148,6.549,0,0,-0.51
0.07,-0.132,0.948,0.003,-49.692,-57.525,14.406,57.931,20.531,68.956,0.063,141,6.374,0,0,-0.475
0.066,-0.124,0.963,0.002,-49.824,-57.684,14.406,57.931,20.531,68.956,0.062,138,6.11,0,0,-0.404
0.066,-0.124,0.959,0.003,-49.692,-57.446,14.406,57.931,20.531,68.956,0.065,146,6.286,0,0,-0.457
0.062,-0.128,0.959,0.678,17.692,64.163,14.406,57.931,20.531,68.956,0.083,190,8.264,0,0,0.545
0.066,-0.132,0.959,0.654,15.363,59.574,14.406,57.931,20.531,68.956,0.083,187,8.352,0,0,0.457
0.066,-0.132,0.959,0.679,17.868,64.242,14.406,57.931,20.531,68.956,0.083,186,8.264,0,0,0.51
0.066,-0.132,0.959,0.651,15.011,59.099,14.406,57.931,20.531,68.956,0.079,176,7.692,0,0,0.457
0.066,-0.128,0.959,0.651,15.099,59.178,14.406,57.931,20.531,68.956,0.079,182,8,0,0,0.457
0.062,-0.124,0.971,0.654,15.363,59.653,14.406,57.931,20.531,68.956,0.08,180,7.78,0,0,0.51
0.066,-0.124,0.963,0.656,15.495,59.89,14.406,57.931,20.531,68.956,0.08,182,8.132,0,0,0.527
0.062,-0.128,0.959,0.002,-49.868,-57.763,14.406,57.931,20.531,68.956,0.054,133,5.714,0,0,-0.651
0.066,-0.132,0.963,0.676,17.648,63.688,14.406,57.931,20.531,68.956,0.085,191,8.396,0,0,0.545
0.062,-0.121,0.959,0.677,17.604,63.688,14.406,57.931,20.531,68.956,0.079,182,7.956,0,0,0.545
0.066,-0.132,0.952,0.002,-49.78,-57.604,14.406,57.931,20.531,68.956,0.058,130,5.582,0,0,-0.44
0.062,-0.132,0.959,0.002,-49.78,-57.604,14.406,57.931,20.531,68.956,0.06,136,5.802,0,0,-0.44
0.062,-0.132,0.959,0.002,-49.78,-57.604,14.406,57.931,20.531,68.956,0.06,136,5.802,0,0,-0.44
0.07,-0.128,0.959,0.002,-49.78,-57.604,14.406,57.931,20.531,68.956,0.058,131,5.714,0,0,-0.387
0.066,-0.128,0.959,0.002,-49.78,-57.684,14.406,57.931,20.531,68.956,0.058,139,6.022,0,0,-0.475
0.066,-0.128,0.959,0.002,-49.78,-57.604,14.406,57.931,20.531,68.956,0.059,136,5.89,0,0,-0.457
0.066,-0.128,0.959,0.002,-49.78,-57.604,14.406,57.931,20.531,68.956,0.059,136,5.89,0,0,-0.457
0.062,-0.128,0.963,0.001,-49.824,-57.763,14.406,57.931,20.531,68.956,0.056,131,5.626,0,0,-0.492
0.066,-0.128,0.963,0.677,17.56,63.53,14.406,57.931,20.531,68.956,0.082,188,8.176,0,0,0.563
0.066,-0.128,0.963,0.677,17.516,63.688,14.406,57.931,20.531,68.956,0.08,184,8.176,0,0,0.563
0.062,-0.128,0.963,0.677,17.736,63.925,14.406,57.931,20.531,68.956,0.082,185,8,0,0,0.51
0.066,-0.128,-0.039,0.677,17.648,63.688,14.406,57.931,20.531,68.956,0.08,184,8.044,0,0,0.527
0.066,-0.128,0.959,0.002,-49.824,-57.604,14.406,57.931,20.531,68.956,0.058,131,5.934,0,0,-0.404
0.062,-0.128,0.963,0.676,17.692,64.004,14.406,57.931,20.531,68.956,0.082,188,8.352,0,0,0.51
0.066,-0.128,-0.035,0.002,-49.824,-57.684,14.406,57.931,20.531,68.956,0.061,139,6.022,0,0,-0.492
0.066,-0.128,0.967,0.002,-49.78,-57.604,14.406,57.931,20.531,68.956,0.058,131,5.846,0,0,-0.457
0.062,-0.128,0.963,0.003,-49.736,-57.525,14.406,57.931,20.531,68.956,0.059,131,5.802,0,0,-0.44
0.066,-0.128,0.959,0.655,15.451,59.811,14.406,57.931,20.531,68.956,0.087,193,8.308,0,0,0.527
0.066,-0.128,0.956,0.001,-49.868,-57.763,14.406,57.931,20.531,68.956,0.06,134,6.11,0,0,-0.404
0.07,-0.132,0.959,0.002,-49.824,-57.684,14.562,58.213,20.531,68.956,0.061,138,6.242,0,0,-0.44
0.066,-0.128,0.963,0.002,-49.78,-57.684,14.562,58.213,20.531,68.956,0.06,137,6.022,0,0,-0.475
0.066,-0.132,0.963,0.002,-49.824,-57.604,14.562,58.213,20.531,68.956,0.062,138,6.198,0,0,-0.422
0.066,-0.132,0.959,0.678,17.736,63.767,14.562,58.213,20.531,68.956,0.087,197,8.791,0,0,0.527
0.062,-0.128,0.963,0.679,17.692,63.925,14.562,58.213,20.531,68.956,0.084,196,8.484,0,0,0.475
0.066,-0.132,0.959,0.002,-49.78,-57.604,14.562,58.213,20.531,68.956,0.061,135,6.154,0,0,-0.387
0.07,-0.132,0.963,0.679,17.78,64.084,14.562,58.213,20.531,68.956,0.084,187,8.308,0,0,0.563
0.062,-0.136,0.959,0.002,-49.824,-57.684,14.562,58.213,20.531,68.956,0.056,134,5.758,0,0,-0.404
0.058,-0.128,0.956,0.002,-49.78,-57.604,14.562,58.213,20.531,68.956,0.057,135,5.89,0,0,-0.44
0.066,-0.128,0.959,0.677,17.648,63.688,14.562,58.213,20.531,68.956,0.081,188,8.132,0,0,0.475
0.062,-0.128,-0.035,0.651,15.055,59.099,14.562,58.213,20.531,68.956,0.081,188,8.088,0,0,0.475
0.066,-0.128,0.959,0.679,17.868,63.846,14.562,58.213,20.531,68.956,0.079,179,8,0,0,0.527
0.062,-0.128,0.959,0.678,17.868,64.163,14.562,58.213,20.531,68.956,0.083,191,8.308,0,0,0.615
0.066,-0.124,0.959,0.003,-49.736,-57.525,14.562,58.213,20.531,68.956,0.057,131,5.802,0,0,-0.404
0.066,-0.132,0.959,0.003,-49.736,-57.525,14.562,58.213,20.531,68.956,0.058,131,5.758,0,0,-0.457
0.062,-0.132,0.963,0.658,15.802,60.365,14.562,58.213,20.531,68.956,0.08,181,7.912,0,0,0.44
0.066,-0.128,0.963,0.002,-49.824,-57.763,14.562,58.213,20.531,68.956,0.058,134,5.67,0,0,-0.51
0.066,-0.128,0.959,0.002,-49.824,-57.604,14.562,58.213,20.531,68.956,0.058,135,5.978,0,0,-0.527
0.066,-0.132,0.963,0.002,-49.824,-57.684,14.562,58.213,20.531,68.956,0.059,141,6.11,0,0,-0.404
0.066,-0.132,0.963,0.002,-49.868,-57.763,14.562,58.213,20.531,68.956,0.059,133,6.022,0,0,-0.475
0.066,-0.128,0.963,0.002,-49.824,-57.604,14.562,58.213,20.531,68.956,0.059,133,5.802,0,0,-0.545
0.066,-0.132,0.959,0.002,-49.824,-57.684,14.562,58.213,20.531,68.956,0.058,134,6.066,0,0,-0.492
0.062,-0.128,0.959,0.003,-49.736,-57.446,14.562,58.213,20.531,68.956,0.057,129,5.846,0,0,-0.387
0.062,-0.132,0.963,0.651,15.099,59.178,14.562,58.213,20.531,68.956,0.085,187,8.352,0,0,0.51
0.066,-0.128,0.959,0.662,15.582,58.387,14.562,58.213,20.531,68.956,0.078,186,8.22,0,0,0.563
0.058,-0.128,0.959,0.679,17.824,64.004,14.562,58.213,20.531,68.956,0.078,174,7.736,0,0,0.527
0.058,-0.128,0.959,0.679,17.824,64.004,14.562,58.213,20.531,68.956,0.078,174,7.736,0,0,0.527
0.062,-0.128,0.959,0.654,15.363,59.495,14.562,58.213,20.531,68.956,0.08,186,8.132,0,0,0.44
0.07,-0.128,0.959,0.003,-49.692,-57.525,14.562,58.213,20.531,68.956,0.055,128,5.495,0,0,-0.492
0.066,-0.128,0.963,0.678,17.692,63.767,14.562,58.213,20.531,68.956,0.082,193,8.132,0,0,0.527
0.066,-0.132,0.963,0.676,17.648,63.767,14.562,58.213,20.531,68.956,0.083,187,8.396,0,0,0.563
0.07,-0.132,0.959,0.677,17.648,63.925,14.562,58.213,20.531,68.956,0.083,189,8.132,0,0,0.475
0.066,-0.124,0.959,0.678,17.736,63.846,14.562,58.213,20.531,68.956,0.08,182,8.132,0,0,0.545
0.062,-0.124,0.963,0.677,17.648,63.688,14.562,58.213,20.531,68.956,0.079,182,7.956,0,0,0.457
0.066,-0.128,0.959,0.676,17.692,63.688,14.562,58.213,20.531,68.956,0.082,191,8.264,0,0,0.422
0.066,-0.132,0.959,0.003,-49.736,-57.525,14.562,58.213,20.531,68.956,0.06,135,5.758,0,0,-0.457
0.066,-0.132,0.959,0.001,-49.868,-57.684,14.562,58.213,20.531,68.956,0.057,133,5.714,0,0,-0.404
0.062,-0.128,0.956,0.677,17.692,63.767,14.562,58.213,20.531,68.956,0.082,188,8.396,0,0,0.457
0.062,-0.128,0.959,0.002,-49.78,-57.604,14.562,58.213,20.531,68.956,0.058,134,5.934,0,0,-0.475
0.066,-0.128,0.959,0.002,-49.692,-57.525,14.562,58.213,20.531,68.956,0.059,131,5.89,0,0,-0.527
0.066,-0.128,0.959,0.002,-49.692,-57.525,14.562,58.213,20.531,68.956,0.059,131,5.89,0,0,-0.527
0.066,-0.128,0.963,0.676,17.692,63.846,14.562,58.213,20.531,68.956,0.08,183,7.912,0,0,0.492
0.066,-0.128,0.959,0.649,14.923,58.782,14.562,58.213,20.531,68.956,0.081,181,8.088,0,0,0.44
0.066,-0.132,0.963,0.677,17.648,63.688,14.562,58.213,20.531,68.956,0.081,178,8.132,0,0,0.492
0.066,-0.128,0.959,0.678,17.736,63.767,14.562,58.213,20.531,68.956,0.079,185,8.044,0,0,0.545
0.062,-0.128,0.959,0.678,17.692,63.846,14.562,58.213,20.531,68.956,0.08,185,8,0,0,0.527
0.066,-0.128,0.956,0.002,-49.78,-57.604,14.562,58.213,20.531,68.956,0.058,132,5.802,0,0,-0.51
0.062,-0.124,0.963,0.002,-49.78,-57.684,14.562,58.213,20.531,68.956,0.056,134,5.67,0,0,-0.404
0.066,-0.132,0.963,0.003,-49.736,-57.525,14.562,58.213,20.531,68.956,0.058,135,5.714,0,0,-0.422
0.07,-0.128,0.959,0.002,-49.824,-57.525,14.562,58.213,20.531,68.956,0.058,134,6.066,0,0,-0.51
0.066,-0.132,0.963,0.002,-49.78,-57.604,14.594,58.269,20.531,68.956,0.058,132,5.714,0,0,-0.457
0.062,-0.128,0.963,0.677,17.648,63.767,14.594,58.269,20.531,68.956,0.08,185,8.088,0,0,0.492
0.062,-0.132,0.959,0.003,-49.736,-57.604,14.594,58.269,20.531,68.956,0.059,134,5.89,0,0,-0.457
0.062,-0.124,0.959,0.003,-49.736,-57.604,14.594,58.269,20.531,68.956,0.055,134,5.758,0,0,-0.475
0.066,-0.128,0.959,0.003,-49.692,-57.367,14.594,58.269,20.531,68.956,0.058,132,5.846,0,0,-0.404
0.066,-0.136,0.959,0.002,-49.824,-57.604,14.594,58.269,20.531,68.956,0.058,133,5.626,0,0,-0.492
0.062,-0.128,0.956,0.65,15.055,59.099,14.594,58.269,20.531,68.956,0.082,182,8.264,0,0,0.475
0.062,-0.124,0.959,0.678,17.736,63.925,14.594,58.269,20.531,68.956,0.079,181,7.956,0,0,0.527
0.062,-0.128,0.959,0.679,17.78,64.004,14.594,58.269,20.531,68.956,0.081,186,8.176,0,0,0.598
0.066,-0.128,0.959,0.677,17.604,63.846,14.594,58.269,20.531,68.956,0.084,180,8.176,0,0,0.545
0.066,-0.128,0.959,0.002,-49.736,-57.446,14.594,58.269,20.531,68.956,0.06,134,5.846,0,0,-0.352
0.062,-0.124,0.959,0.003,-49.736,-57.446,14.594,58.269,20.531,68.956,0.061,137,5.934,0,0,-0.44
0.066,-0.124,0.963,0.678,17.692,63.925,14.594,58.269,20.531,68.956,0.082,189,8.308,0,0,0.44
0.066,-0.132,0.963,0.003,-49.736,-57.604,14.594,58.269,20.531,68.956,0.058,134,5.802,0,0,-0.457
0.066,-0.132,0.956,0.002,-49.824,-57.684,14.594,58.269,20.531,68.956,0.062,140,6.242,0,0,-0.422
0.066,-0.132,0.959,0.002,-49.78,-57.604,14.594,58.269,20.531,68.956,0.06,136,6.066,0,0,-0.51
0.066,-0.124,0.959,0.002,-49.78,-57.604,14.594,58.269,20.531,68.956,0.055,130,5.626,0,0,-0.492
0.066,-0.132,0.959,0.003,-49.736,-57.525,14.594,58.269,20.531,68.956,0.059,129,5.714,0,0,-0.422
0.066,-0.128,0.959,0.678,17.78,64.084,14.594,58.269,20.531,68.956,0.087,194,8.44,0,0,0.563
0.066,-0.132,0.952,0.002,-49.736,-57.525,14.594,58.269,20.531,68.956,0.056,134,5.714,0,0,-0.44
0.066,-0.128,0.959,0.679,17.824,64.004,14.594,58.269,20.531,68.956,0.083,185,8.22,0,0,0.51
0.062,-0.128,0.959,0.651,14.967,58.941,14.594,58.269,20.531,68.956,0.079,182,7.78,0,0,0.492
0.066,-0.132,0.959,0.678,17.78,64.004,14.594,58.269,20.531,68.956,0.081,186,8.132,0,0,0.492
0.066,-0.128,0.959,0.651,14.923,58.941,14.594,58.269,20.531,68.956,0.083,188,8.22,0,0,0.457
0.066,-0.128,0.959,0.002,-49.78,-57.684,14.594,58.269,20.531,68.956,0.057,135,5.758,0,0,-0.492
0.062,-0.132,0.956,0.003,-49.736,-57.604,14.594,58.269,20.531,68.956,0.056,128,5.758,0,0,-0.457
0.066,-0.124,0.959,0.003,-49.692,-57.446,14.594,58.269,20.531,68.956,0.061,135,5.934,0,0,-0.475
0.062,-0.132,0.963,0.002,-49.78,-57.684,14.594,58.269,20.531,68.956,0.058,130,5.758,0,0,-0.457
0.066,-0.132,0.963,0.002,-49.736,-57.525,14.594,58.269,20.531,68.956,0.057,133,5.758,0,0,-0.457
0.066,-0.124,0.963,0.002,-49.736,-57.525,14.594,58.269,20.531,68.956,0.058,132,5.67,0,0,-0.457
0.066,-0.128,0.959,0.677,17.648,63.767,14.594,58.269,20.531,68.956,0.084,193,8.352,0,0,0.563
-0.41,0.07,0.956,0.002,-49.78,-57.525,14.594,58.269,20.531,68.956,0.074,169,7.429,0,0,-0.387
-0.437,-0.156,1.946,0.651,15.055,59.099,14.594,58.269,20.531,68.956,0.09,207,8.923,1,4,0.563
0.07,-0.113,0.956,0.658,15.802,60.365,14.594,58.269,20.531,68.956,0.083,180,7.912,1,4,0.51
0.066,-0.124,0.963,0.65,14.967,58.941,14.594,58.269,20.531,68.956,0.08,179,8.088,1,4,0.475
0.066,-0.124,0.963,0.65,14.967,58.941,14.594,58.269,20.531,68.956,0.08,179,8.088,1,4,0.475
0.062,-0.128,0.956,0.677,17.736,63.846,14.594,58.269,20.531,68.956,0.086,188,8.396,1,4,0.545
0.094,-0.109,0.963,0.678,17.692,63.767,14.594,58.269,20.531,68.956,0.088,201,8.879,1,4,0.545
0.027,-0.156,0.956,0.65,14.835,58.782,14.594,58.269,20.531,68.956,0.091,209,9.275,1,4,0.44
0.066,-0.128,0.963,0.676,17.648,63.767,14.594,58.269,20.531,68.956,0.086,196,8.659,1,4,0.545
0.07,-0.128,0.959,0.676,17.604,63.767,14.594,58.269,20.531,68.956,0.081,183,8.132,1,4,0.44
0.058,-0.132,0.959,0.677,17.648,63.767,14.594,58.269,20.531,68.956,0.082,187,8.308,1,4,0.51
0.062,-0.128,0.959,0.651,15.011,58.941,14.594,58.269,20.531,68.956,0.082,180,8.132,1,4,0.545
0.066,-0.128,0.967,0.002,-49.824,-57.684,14.594,58.269,20.531,68.956,0.058,139,5.934,1,4,-0.457
0.055,-0.14,0.963,0.002,-49.78,-57.604,14.594,58.269,20.531,68.956,0.061,134,5.846,1,4,-0.457
0.09,-0.148,0.956,0.002,-49.736,-57.446,14.594,58.269,20.531,68.956,0.058,134,5.978,1,4,-0.492
0.066,-0.121,0.959,0.003,-49.736,-57.446,14.594,58.269,20.531,68.956,0.058,128,5.802,1,4,-0.422
0.066,-0.132,0.959,0.677,17.692,63.609,14.594,58.269,20.531,68.956,0.081,182,8.044,1,4,0.492
0.066,-0.132,0.963,0.002,-49.78,-57.525,14.594,58.269,20.531,68.956,0.057,128,5.626,1,4,-0.44
0.062,-0.128,0.963,0.65,14.923,58.862,14.594,58.269,20.531,68.956,0.08,181,8,1,4,0.492
0.066,-0.128,0.967,0.003,-49.692,-57.446,14.594,58.269,20.531,68.956,0.058,130,5.978,1,4,-0.492
0.066,-0.132,0.963,0.677,17.648,63.688,13.625,56.525,20.531,68.956,0.081,190,8.352,1,4,0.545
0.062,-0.128,0.956,0.002,-49.78,-57.446,13.625,56.525,20.531,68.956,0.061,140,5.934,1,4,-0.387
0.062,-0.128,0.963,0.677,17.648,63.767,13.625,56.525,20.531,68.956,0.08,186,7.956,1,4,0.51
0.066,-0.128,0.963,0.003,-49.736,-57.525,13.625,56.525,20.531,68.956,0.057,131,5.758,1,4,-0.422
0.066,-0.128,0.963,0.003,-49.736,-57.525,13.625,56.525,20.531,68.956,0.057,131,5.758,1,4,-0.422
0.062,-0.128,0.963,0.679,17.824,64.004,13.625,56.525,20.531,68.956,0.08,186,8.088,1,4,0.51
0.066,-0.128,0.959,0.679,17.868,63.925,13.625,56.525,20.531,68.956,0.081,185,8.22,1,4,0.563
0.066,-0.128,0.959,0.66,15.89,60.681,13.625,56.525,20.531,68.956,0.079,184,7.912,1,4,0.492
0.062,-0.128,0.963,0.653,15.187,59.178,13.625,56.525,20.531,68.956,0.079,175,7.868,1,4,0.387
0.066,-0.124,0.963,0.002,-49.78,-57.684,13.625,56.525,20.531,68.956,0.057,130,5.495,1,4,-0.492
0.062,-0.128,0.963,0.002,-49.824,-57.525,13.625,56.525,20.531,68.956,0.058,139,6.11,1,4,-0.316
0.066,-0.124,0.956,0.678,17.692,63.846,13.625,56.525,20.531,68.956,0.084,189,8.527,1,4,0.545
0.066,-0.128,0.963,0.002,-49.824,-57.604,13.625,56.525,20.531,68.956,0.061,140,6.022,1,4,-0.369
0.066,-0.128,0.963,0.678,17.824,64.084,13.625,56.525,20.531,68.956,0.083,191,8.264,1,4,0.527
0.062,-0.124,0.959,0.657,15.67,60.286,13.625,56.525,20.531,68.956,0.08,181,8.044,1,4,0.492
0.066,-0.132,0.963,0.651,15.011,59.099,13.625,56.525,20.531,68.956,0.083,190,8.088,1,4,0.475
0.066,-0.132,0.963,0.651,15.055,58.941,13.625,56.525,20.531,68.956,0.081,186,8.044,1,4,0.527
0.062,-0.128,0.963,0.002,-49.78,-57.684,13.625,56.525,20.531,68.956,0.056,129,5.67,1,4,-0.527
0.066,-0.124,0.959,0.002,-49.824,-57.763,13.625,56.525,20.531,68.956,0.056,131,5.934,1,4,-0.457
0.058,-0.128,0.959,0.651,15.143,59.178,13.625,56.525,20.531,68.956,0.081,185,8.176,1,4,0.387
0.07,-0.128,0.959,0.002,-49.824,-57.684,13.625,56.525,20.531,68.956,0.06,139,6.022,1,4,-0.352
0.07,-0.128,0.967,0.678,17.824,63.925,13.625,56.525,20.531,68.956,0.086,195,8.571,1,4,0.527
0.062,-0.124,0.959,0.003,-49.736,-57.525,13.625,56.525,20.531,68.956,0.062,141,6.242,1,4,-0.58
0.066,-0.128,0.959,0.003,-49.78,-57.604,13.625,56.525,20.531,68.956,0.059,143,6.242,1,4,-0.475
0.07,-0.124,0.963,0.002,-49.78,-57.604,13.625,56.525,20.531,68.956,0.059,139,5.934,1,4,-0.369
0.062,-0.128,0.963,0.678,17.824,63.846,13.625,56.525,20.531,68.956,0.084,190,8.44,1,4,0.492
0.062,-0.128,0.963,0.002,-49.78,-57.604,13.625,56.525,20.531,68.956,0.059,132,5.67,1,4,-0.475
0.062,-0.128,0.959,0.002,-49.824,-57.684,13.625,56.525,20.531,68.956,0.057,130,5.714,1,4,-0.492
0.066,-0.132,0.959,0.003,-49.78,-57.604,13.625,56.525,20.531,68.956,0.058,139,5.846,1,4,-0.44
0.066,-0.132,0.959,0.002,-49.736,-57.525,13.625,56.525,20.531,68.956,0.058,132,5.802,1,4,-0.422
0.062,-0.128,0.959,0.003,-49.78,-57.604,13.625,56.525,20.531,68.956,0.058,133,5.714,1,4,-0.422
0.062,-0.132,0.952,0.677,17.692,63.925,13.625,56.525,20.531,68.956,0.086,192,8.44,1,4,0.545
0.07,-0.128,0.959,0.002,-49.868,-57.842,13.625,56.525,20.531,68.956,0.055,125,5.319,1,4,-0.475
0.066,-0.128,0.956,0.002,-49.78,-57.604,13.625,56.525,20.531,68.956,0.063,140,6.242,1,4,-0.334
0.062,-0.121,0.975,0.002,-49.824,-57.604,13.625,56.525,20.531,68.956,0.059,127,5.67,1,4,-0.545
0.066,-0.128,0.963,0.002,-49.868,-57.842,13.625,56.525,20.531,68.956,0.057,132,5.934,1,4,-0.615
0.066,-0.124,0.963,0.676,17.604,63.53,13.625,56.525,20.531,68.956,0.083,191,8.264,1,4,0.51
0.066,-0.124,0.963,0.676,17.604,63.53,13.625,56.525,20.531,68.956,0.083,191,8.264,1,4,0.51
0.066,-0.124,0.959,0.004,-49.692,-57.525,13.625,56.525,20.531,68.956,0.055,128,5.714,1,4,-0.51
0.062,-0.124,0.963,0.003,-49.692,-57.367,13.625,56.525,20.531,68.956,0.058,131,5.758,1,4,-0.44
0.07,-0.128,0.959,0.003,-49.736,-57.446,13.625,56.525,20.531,68.956,0.06,135,5.934,1,4,-0.44
0.066,-0.128,0.963,0.003,-49.736,-57.604,13.625,56.525,20.531,68.956,0.055,133,5.934,1,4,-0.387
0.058,-0.128,0.967,0.003,-49.648,-57.446,13.625,56.525,20.531,68.956,0.06,130,5.67,1,4,-0.44
0.066,-0.132,0.963,0.002,-49.78,-57.604,13.625,56.525,20.531,68.956,0.057,136,5.626,1,4,-0.44
0.066,-0.124,0.963,0.003,-49.78,-57.604,13.625,56.525,20.531,68.956,0.058,129,5.714,1,4,-0.387
0.066,-0.124,-0.039,0.002,-49.78,-57.604,13.625,56.525,20.594,69.069,0.058,132,5.846,1,4,-0.475
0.066,-0.124,-0.039,0.002,-49.78,-57.604,13.625,56.525,20.594,69.069,0.058,132,5.846,1,4,-0.475
0.066,-0.132,0.959,0.003,-49.692,-57.604,13.625,56.525,20.594,69.069,0.061,135,6.154,1,4,-0.457
0.062,-0.128,0.967,0.003,-49.692,-57.525,13.625,56.525,20.594,69.069,0.059,136,6.066,1,4,-0.369
0.062,-0.124,0.967,0.677,17.692,63.846,13.625,56.525,20.594,69.069,0.089,204,9.055,1,4,0.492
0.062,-0.128,0.963,0.002,-49.736,-57.604,13.625,56.525,20.594,69.069,0.064,145,6.286,1,4,-0.404
0.062,-0.128,0.963,0.002,-49.868,-57.763,13.312,55.963,20.594,69.069,0.06,143,6.154,1,4,-0.422
0.066,-0.128,0.967,0.003,-49.736,-57.446,13.312,55.963,20.594,69.069,0.065,148,6.505,1,4,-0.492
0.066,-0.132,0.959,0.003,-49.692,-57.446,13.312,55.963,20.594,69.069,0.065,146,6.505,1,4,-0.404
0.062,-0.128,0.979,0.679,17.736,64.004,13.312,55.963,20.594,69.069,0.09,207,9.363,1,4,0.51
0.066,-0.124,0.944,0.003,-49.736,-57.367,13.312,55.963,20.594,69.069,0.063,141,6.374,1,4,-0.44
0.062,-0.128,0.979,0.678,17.824,64.163,13.312,55.963,20.594,69.069,0.087,198,8.703,0,0,0.563
0.07,-0.128,0.94,0.679,17.824,64.084,13.312,55.963,20.594,69.069,0.089,199,8.747,0,0,0.527
0.07,-0.128,0.94,0.679,17.824,64.084,13.312,55.963,20.594,69.069,0.089,199,8.747,0,0,0.527
0.066,-0.128,0.963,0.679,17.868,64.163,13.312,55.963,20.594,69.069,0.09,206,9.011,0,0,0.545
0.066,-0.128,0.963,0.679,17.868,64.163,13.312,55.963,20.594,69.069,0.09,206,9.011,0,0,0.545
0.066,-0.132,0.963,0.655,15.363,59.574,13.312,55.963,20.594,69.069,0.086,196,8.703,0,0,0.492
0.066,-0.132,0.963,0.655,15.363,59.574,13.312,55.963,20.594,69.069,0.086,196,8.703,0,0,0.492
0.062,-0.124,0.959,0.652,15.099,59.02,13.312,55.963,20.594,69.069,0.085,195,8.484,0,0,0.492
0.066,-0.121,0.963,0.003,-49.692,-57.525,13.312,55.963,20.594,69.069,0.061,140,6.066,0,0,-0.527
0.066,-0.121,0.963,0.003,-49.692,-57.525,13.312,55.963,20.594,69.069,0.061,140,6.066,0,0,-0.527
0.066,-0.128,0.963,0.651,15.099,59.178,13.312,55.963,20.594,69.069,0.09,199,8.791,0,0,0.457
0.066,-0.128,0.963,0.002,-49.78,-57.525,13.312,55.963,20.594,69.069,0.059,131,5.89,0,0,-0.422
0.066,-0.128,0.963,0.677,17.736,63.609,13.312,55.963,20.594,69.069,0.081,195,8.176,0,0,0.527
0.062,-0.128,0.963,0.679,17.824,63.846,13.312,55.963,20.594,69.069,0.086,192,8.308,0,0,0.527
0.062,-0.132,0.963,0.678,17.78,64.004,13.312,55.963,20.594,69.069,0.083,192,8.308,0,0,0.51
0.058,-0.124,0.959,0.678,17.824,64.084,13.312,55.963,20.594,69.069,0.083,187,8.22,0,0,0.527
0.058,-0.124,0.959,0.678,17.824,64.084,13.312,55.963,20.594,69.069,0.083,187,8.22,0,0,0.527
0.062,-0.14,0.952,0.678,17.692,63.925,13.312,55.963,20.594,69.069,0.087,197,8.703,0,0,0.598
0.062,-0.128,0.967,0.002,-49.736,-57.446,13.312,55.963,20.594,69.069,0.062,142,6.242,0,0,-0.422
0.066,-0.124,0.959,0.678,17.824,64.163,13.312,55.963,20.594,69.069,0.085,190,8.527,0,0,0.545
0.066,-0.128,0.959,0.004,-49.648,-57.446,13.312,55.963,20.594,69.069,0.058,129,5.89,0,0,-0.563
0.062,-0.136,0.959,0.652,15.099,59.336,13.312,55.963,20.594,69.069,0.086,189,8.176,0,0,0.527
0.066,-0.132,0.963,0.002,-49.78,-57.604,13.312,55.963,20.594,69.069,0.059,137,6.022,0,0,-0.369
0.066,-0.128,0.963,0.002,-49.824,-57.684,13.312,55.963,20.594,69.069,0.058,126,5.407,0,0,-0.422
0.07,-0.128,0.959,0.002,-49.78,-57.604,13.312,55.963,20.594,69.069,0.058,129,5.67,0,0,-0.58
0.062,-0.128,0.963,0.003,-49.736,-57.446,13.312,55.963,20.594,69.069,0.058,134,6.022,0,0,-0.527
0.07,-0.132,0.959,0.003,-49.692,-57.367,13.312,55.963,20.594,69.069,0.059,138,5.934,0,0,-0.334
0.066,-0.128,0.959,0.677,17.692,63.925,13.312,55.963,20.594,69.069,0.081,183,8.22,0,0,0.492
0.062,-0.128,0.963,0.677,17.604,63.846,13.312,55.963,20.594,69.069,0.08,183,8,0,0,0.527
0.062,-0.128,0.963,0.003,-49.736,-57.446,13.312,55.963,20.594,69.069,0.059,135,6.022,0,0,-0.527
0.07,-0.124,0.971,0.676,17.56,63.609,13.312,55.963,20.594,69.069,0.084,191,8.44,0,0,0.545
0.062,-0.128,0.959,0.677,17.692,64.004,13.312,55.963,20.594,69.069,0.083,188,8.352,0,0,0.598
0.066,-0.132,0.963,0.678,17.736,63.767,13.312,55.963,20.594,69.069,0.08,182,7.868,0,0,0.58
0.062,-0.124,0.959,0.677,17.736,63.846,13.312,55.963,20.594,69.069,0.082,190,8.308,0,0,0.475
0.062,-0.124,0.956,0.002,-49.78,-57.604,13.312,55.963,20.594,69.069,0.058,127,5.802,0,0,-0.404
0.07,-0.128,0.963,0.65,14.879,58.703,13.312,55.963,20.594,69.069,0.084,194,8.484,0,0,0.404
0.066,-0.124,0.959,0.002,-49.736,-57.525,13.312,55.963,20.594,69.069,0.062,137,6.198,0,0,-0.44
0.066,-0.128,0.963,0.002,-49.78,-57.604,13.312,55.963,20.594,69.069,0.061,140,6.11,0,0,-0.369
0.066,-0.128,0.963,0.002,-49.78,-57.604,13.312,55.963,20.594,69.069,0.061,140,6.11,0,0,-0.369
0.062,-0.124,0.959,0.677,17.692,63.609,13.312,55.963,20.594,69.069,0.083,188,8.308,0,0,0.492
0.062,-0.132,0.959,0.002,-49.78,-57.604,13.312,55.963,20.594,69.069,0.058,130,5.802,0,0,-0.457
0.062,-0.132,0.959,0.677,17.648,63.767,13.312,55.963,20.594,69.069,0.084,190,8.22,0,0,0.527
0.066,-0.132,0.956,0.676,17.648,63.846,13.312,55.963,20.594,69.069,0.085,192,8.352,0,0,0.545
0.066,-0.132,0.959,0.677,17.648,63.846,13.312,55.963,20.594,69.069,0.082,184,8.088,0,0,0.563
0.062,-0.132,0.959,0.655,16.813,63.451,13.312,55.963,20.594,69.069,0.082,186,8.22,0,0,0.598
0.066,-0.132,0.963,0.002,-49.824,-57.684,13.312,55.963,20.594,69.069,0.059,137,6.022,0,0,-0.475
0.066,-0.132,0.963,0.002,-49.824,-57.684,13.312,55.963,20.594,69.069,0.059,137,6.022,0,0,-0.475
0.066,-0.128,0.963,0.677,17.692,63.767,13.312,55.963,20.594,69.069,0.085,194,8.615,0,0,0.563
0.066,-0.128,0.956,0.002,-49.868,-57.763,13.312,55.963,20.594,69.069,0.058,134,5.978,0,0,-0.475
0.066,-0.128,0.963,0.002,-49.824,-57.763,13.312,55.963,20.594,69.069,0.057,133,5.802,0,0,-0.44
0.066,-0.132,0.963,0.659,15.89,60.602,13.312,55.963,20.594,69.069,0.087,194,8.396,0,0,0.44
0.066,-0.132,0.963,0.659,15.89,60.602,13.312,55.963,20.594,69.069,0.087,194,8.396,0,0,0.44
0.062,-0.128,0.963,0.678,17.824,64.004,13.312,55.963,20.594,69.069,0.08,183,8.132,0,0,0.492
0.066,-0.132,0.967,0.678,17.78,64.004,13.312,55.963,20.594,69.069,0.082,185,8.176,0,0,0.527
0.066,-0.132,0.959,0.003,-49.736,-57.446,13.312,55.963,20.594,69.069,0.06,132,6.066,0,0,-0.422
0.066,-0.128,0.963,0.003,-49.736,-57.604,13.312,55.963,20.594,69.069,0.058,131,5.846,0,0,-0.422
0.066,-0.128,0.963,0.678,17.78,63.925,13.312,55.963,20.594,69.069,0.079,183,7.956,0,0,0.563
0.062,-0.124,0.959,0.001,-49.868,-57.684,13.312,55.963,20.594,69.069,0.055,129,5.714,0,0,-0.475
0.062,-0.121,-0.035,0.002,-49.78,-57.604,13.312,55.963,20.594,69.069,0.059,134,5.978,0,0,-0.404
0.066,-0.132,0.956,0.679,17.824,64.084,13.312,55.963,20.594,69.069,0.083,185,8.308,0,0,0.492
0.062,-0.128,0.956,0.679,17.824,63.925,13.312,55.963,20.594,69.069,0.08,185,7.868,0,0,0.58
0.062,-0.124,-0.039,0.679,17.824,64.004,13.312,55.963,20.594,69.069,0.078,180,7.956,0,0,0.492
0.066,-0.132,0.959,0.677,17.736,64.242,13.312,55.963,20.594,69.069,0.083,191,8.264,0,0,0.527
0.062,-0.128,0.963,0.003,-49.736,-57.604,13.312,55.963,20.594,69.069,0.06,133,5.714,0,0,-0.475
0.058,-0.128,0.959,0.679,17.736,64.004,13.312,55.963,20.594,69.069,0.085,192,8.264,0,0,0.51
0.058,-0.128,0.959,0.003,-49.78,-57.604,13.312,55.963,20.594,69.069,0.059,134,5.802,0,0,-0.457
0.066,-0.128,0.963,0.002,-49.78,-57.525,13.312,55.963,20.594,69.069,0.061,139,6.11,0,0,-0.422
0.07,-0.124,0.967,0.002,-49.78,-57.604,13.312,55.963,20.594,69.069,0.058,131,5.758,0,0,-0.475
0.066,-0.124,0.963,0.679,17.824,63.925,13.312,55.963,20.594,69.069,0.084,186,8.308,0,0,0.475
0.062,-0.128,0.963,0.002,-49.78,-57.525,13.312,55.963,20.594,69.069,0.057,131,5.626,0,0,-0.51
0.062,-0.124,0.959,0.65,15.011,59.02,13.312,55.963,20.594,69.069,0.084,194,8.396,0,0,0.527
0.066,-0.128,0.959,0.002,-49.824,-57.604,13.312,55.963,20.594,69.069,0.059,132,5.89,0,0,-0.387
0.066,-0.128,0.959,0.002,-49.824,-57.604,13.312,55.963,20.594,69.069,0.059,132,5.89,0,0,-0.387
0.066,-0.124,0.959,0.002,-49.824,-57.684,13.312,55.963,20.594,69.069,0.058,129,5.714,0,0,-0.422
0.066,-0.128,0.963,0.676,17.648,63.609,13.312,55.963,20.594,69.069,0.084,191,8.659,0,0,0.475
0.066,-0.128,0.963,0.002,-49.78,-57.684,13.312,55.963,20.594,69.069,0.06,138,5.934,0,0,-0.44
0.066,-0.132,0.959,0.677,17.692,63.767,13.312,55.963,20.594,69.069,0.085,194,8.484,0,0,0.51
0.062,-0.117,0.959,0.677,17.736,63.846,13.312,55.963,20.594,69.069,0.083,187,8.264,0,0,0.545
0.058,-0.117,0.967,0.677,17.56,63.53,13.312,55.963,20.594,69.069,0.084,189,8.527,0,0,0.51
0.066,-0.128,0.963,0.677,17.648,63.688,13.312,55.963,20.594,69.069,0.083,184,8.22,0,0,0.527
0.066,-0.132,0.963,0.678,17.648,63.688,13.312,55.963,20.594,69.069,0.082,188,8.176,0,0,0.527
0.066,-0.132,0.959,0.002,-49.78,-57.604,13.312,55.963,20.594,69.069,0.058,128,5.802,0,0,-0.545
0.066,-0.128,0.959,0.678,17.648,63.688,13.312,55.963,20.594,69.069,0.082,189,8,0,0,0.492
0.066,-0.124,0.967,0.677,17.692,63.53,13.312,55.963,20.594,69.069,0.081,186,8.22,0,0,0.475
0.062,-0.128,0.959,0.651,15.055,59.099,13.312,55.963,20.594,69.069,0.082,186,8.132,0,0,0.422
0.062,-0.128,0.959,0.652,15.055,59.099,13.312,55.963,20.594,69.069,0.082,190,8.352,0,0,0.492
0.062,-0.132,0.963,0.657,15.67,60.048,13.312,55.963,20.594,69.069,0.08,188,8.132,0,0,0.475
0.066,-0.132,0.963,0.651,14.967,58.862,13.312,55.963,20.594,69.069,0.082,187,8.176,0,0,0.44
0.062,-0.128,0.959,0.65,14.967,58.862,13.312,55.963,20.594,69.069,0.083,185,8.22,0,0,0.527
0.066,-0.132,0.959,0.652,15.143,59.257,13.312,55.963,20.594,69.069,0.081,185,8.132,0,0,0.51
0.062,-0.124,0.959,0.658,15.626,60.048,13.312,55.963,20.594,69.069,0.079,181,7.912,0,0,0.527
0.062,-0.128,0.959,0.678,17.692,63.767,13.312,55.963,20.625,69.125,0.081,186,8.132,0,0,0.545
0.058,-0.124,0.967,0.003,-49.736,-57.525,13.312,55.963,20.625,69.125,0.059,131,5.89,0,0,-0.369
0.066,-0.128,0.959,0.002,-49.78,-57.604,13.312,55.963,20.625,69.125,0.06,134,5.846,0,0,-0.492
0.062,-0.128,0.963,0.002,-49.78,-57.604,13.312,55.963,20.625,69.125,0.058,133,5.846,0,0,-0.492
0.062,-0.132,0.963,0.002,-49.78,-57.525,13.312,55.963,20.625,69.125,0.061,137,5.978,0,0,-0.492
0.066,-0.128,0.963,0.003,-49.736,-57.604,13.594,56.469,20.625,69.125,0.058,131,6.022,0,0,-0.44
0.062,-0.124,0.959,0.677,17.692,63.925,13.594,56.469,20.625,69.125,0.084,190,8.264,0,0,0.51
0.062,-0.128,1.954,0.003,-49.736,-57.525,13.594,56.469,20.625,69.125,0.059,134,5.934,0,0,-0.492
0.066,-0.124,0.959,0.678,17.736,64.163,13.594,56.469,20.625,69.125,0.082,186,8.44,0,0,0.545
0.062,-0.121,0.963,0.655,15.495,59.732,13.594,56.469,20.625,69.125,0.084,191,8.396,0,0,0.492
0.066,-0.132,0.963,0.678,17.824,64.004,13.594,56.469,20.625,69.125,0.082,187,8.22,0,0,0.527
0.07,-0.124,0.959,0.678,17.736,64.004,13.594,56.469,20.625,69.125,0.082,187,8.22,0,0,0.51
0.062,-0.124,0.952,0.653,15.143,59.257,13.594,56.469,20.625,69.125,0.083,183,8.132,0,0,0.527
0.07,-0.132,0.959,0.003,-49.692,-57.446,13.594,56.469,20.625,69.125,0.058,133,5.846,0,0,-0.387
0.058,-0.128,0.959,0.002,-49.736,-57.525,13.594,56.469,20.625,69.125,0.059,129,5.89,0,0,-0.422
0.066,-0.128,0.963,0.003,-49.736,-57.525,13.594,56.469,20.625,69.125,0.062,139,5.89,0,0,-0.475
0.062,-0.128,0.959,0.003,-49.736,-57.525,13.594,56.469,20.625,69.125,0.059,136,6.066,0,0,-0.422
0.066,-0.132,0.963,0.68,17.912,64.004,13.594,56.469,20.625,69.125,0.086,194,8.484,0,0,0.545
0.062,-0.128,0.963,0.678,17.78,64.084,13.594,56.469,20.625,69.125,0.082,187,8.22,0,0,0.492
0.066,-0.124,0.963,0.678,17.78,64.084,13.594,56.469,20.625,69.125,0.081,184,8.132,0,0,0.527
0.062,-0.124,0.963,0.678,17.868,64.004,13.594,56.469,20.625,69.125,0.082,185,8.132,0,0,0.51
0.066,-0.128,0.959,0.654,15.319,59.495,13.594,56.469,20.625,69.125,0.083,191,8.264,0,0,0.44
0.066,-0.128,0.959,0.002,-49.824,-57.684,13.594,56.469,20.625,69.125,0.062,132,5.758,0,0,-0.51
0.062,-0.128,0.959,0.002,-49.736,-57.525,13.594,56.469,20.625,69.125,0.062,144,6.286,0,0,-0.563
0.066,-0.132,0.963,0.678,17.824,64.084,13.594,56.469,20.625,69.125,0.084,191,8.264,0,0,0.563
0.066,-0.128,0.963,0.002,-49.78,-57.604,13.594,56.469,20.625,69.125,0.06,139,6.022,0,0,-0.404
0.066,-0.128,0.963,0.001,-49.824,-57.684,13.594,56.469,20.625,69.125,0.062,134,6.242,0,0,-0.51
0.066,-0.128,0.963,0.001,-49.824,-57.684,13.594,56.469,20.625,69.125,0.062,134,6.242,0,0,-0.51
0.066,-0.128,0.963,0.002,-49.78,-57.684,13.594,56.469,20.625,69.125,0.055,131,5.802,0,0,-0.51
0.066,-0.128,0.963,0.68,17.912,64.242,13.594,56.469,20.625,69.125,0.086,193,8.615,0,0,0.492
0.066,-0.128,0.979,0.003,-49.78,-57.604,13.594,56.469,20.625,69.125,0.058,128,5.582,0,0,-0.492
0.066,-0.128,0.952,0.002,-49.824,-57.763,13.594,56.469,20.625,69.125,0.059,136,5.978,0,0,-0.422
0.062,-0.124,0.959,0.651,14.967,59.02,13.594,56.469,20.625,69.125,0.084,186,8.132,0,0,0.492
0.066,-0.124,0.963,0.651,15.055,59.099,13.594,56.469,20.625,69.125,0.082,183,8.22,0,0,0.457
0.062,-0.124,0.963,0.655,15.407,59.811,13.594,56.469,20.625,69.125,0.082,187,8,0,0,0.545
0.058,-0.124,0.975,0.655,15.275,59.415,13.594,56.469,20.625,69.125,0.082,186,8.22,0,0,0.545
0.066,-0.128,0.967,0.002,-49.736,-57.684,13.594,56.469,20.625,69.125,0.06,129,5.626,0,0,-0.404
0.066,-0.136,0.963,0.003,-49.736,-57.604,13.594,56.469,20.625,69.125,0.062,141,6.198,0,0,-0.457
0.066,-0.132,0.959,0.003,-49.736,-57.604,13.594,56.469,20.625,69.125,0.058,129,5.714,0,0,-0.387
0.07,-0.132,0.959,0.002,-49.824,-57.684,13.594,56.469,20.625,69.125,0.058,131,5.846,0,0,-0.369
0.07,-0.132,0.959,0.002,-49.824,-57.684,13.594,56.469,20.625,69.125,0.058,131,5.846,0,0,-0.369
0.066,-0.128,0.963,0.678,17.648,63.688,13.594,56.469,20.625,69.125,0.08,188,8.264,0,0,0.527
0.066,-0.124,0.963,0.002,-49.824,-57.684,13.594,56.469,20.625,69.125,0.056,127,5.451,0,0,-0.475
0.066,-0.124,0.963,0.676,17.604,63.846,13.594,56.469,20.625,69.125,0.087,197,8.571,0,0,0.527
0.07,-0.128,0.963,0.677,17.648,63.688,13.594,56.469,20.625,69.125,0.081,187,8.176,0,0,0.563
0.066,-0.128,0.959,0.678,17.736,63.767,13.594,56.469,20.625,69.125,0.081,184,8.044,0,0,0.527
0.07,-0.132,0.959,0.677,17.692,63.767,13.594,56.469,20.625,69.125,0.081,187,8.22,0,0,0.563
0.066,-0.128,0.963,0.676,17.56,63.688,13.594,56.469,20.625,69.125,0.081,189,8.352,0,0,0.492
0.066,-0.124,0.959,0.002,-49.824,-57.684,13.594,56.469,20.625,69.125,0.059,133,5.758,0,0,-0.44
0.062,-0.132,0.967,0.001,-49.868,-57.763,13.594,56.469,20.625,69.125,0.058,133,5.758,0,0,-0.422
0.066,-0.128,0.963,0.002,-49.78,-57.604,13.594,56.469,20.594,69.069,0.056,131,5.538,0,0,-0.457
0.062,-0.128,0.963,0.002,-49.78,-57.684,13.594,56.469,20.594,69.069,0.057,133,5.758,0,0,-0.475
0.062,-0.128,0.963,0.002,-49.824,-57.684,13.594,56.469,20.594,69.069,0.058,134,5.802,0,0,-0.44
0.066,-0.132,0.952,0.677,17.692,63.767,13.594,56.469,20.594,69.069,0.083,187,7.956,0,0,0.492
0.062,-0.128,0.959,0.003,-49.736,-57.525,13.594,56.469,20.594,69.069,0.058,131,5.802,0,0,-0.492
0.066,-0.132,0.959,0.651,15.099,59.257,13.594,56.469,20.594,69.069,0.083,188,8.176,0,0,0.422
0.066,-0.128,0.959,0.657,15.714,60.207,14.25,57.65,20.594,69.069,0.079,179,7.956,0,0,0.527
0.066,-0.124,0.959,0.677,17.736,63.688,14.25,57.65,20.594,69.069,0.084,186,8.22,0,0,0.563
0.062,-0.128,0.963,0.679,17.824,64.163,14.25,57.65,20.594,69.069,0.081,186,8.176,0,0,0.51
0.07,-0.128,0.963,0.002,-49.78,-57.684,14.25,57.65,20.594,69.069,0.055,131,5.538,0,0,-0.51
0.062,-0.124,0.963,0.003,-49.736,-57.525,14.25,57.65,20.594,69.069,0.061,140,5.89,0,0,-0.44
0.066,-0.124,0.963,0.003,-49.736,-57.604,14.25,57.65,20.594,69.069,0.056,130,5.846,0,0,-0.475
0.062,-0.124,0.963,0.002,-49.78,-57.604,14.25,57.65,20.594,69.069,0.061,140,5.934,0,0,-0.475
0.058,-0.121,0.956,0.003,-49.692,-57.525,14.25,57.65,20.594,69.069,0.062,133,5.934,0,0,-0.422
0.066,-0.128,0.959,0.003,-49.78,-57.684,14.25,57.65,20.594,69.069,0.058,136,5.846,0,0,-0.475
0.062,-0.124,0.967,0.678,17.78,64.004,14.25,57.65,20.594,69.069,0.083,187,8.352,0,0,0.527
0.066,-0.128,0.963,0.679,17.868,64.004,14.25,57.65,20.594,69.069,0.082,188,8.176,0,0,0.51
0.066,-0.128,0.959,0.678,17.78,64.004,14.25,57.65,20.594,69.069,0.081,186,8.132,0,0,0.563
0.066,-0.14,0.963,0.678,17.78,64.004,14.25,57.65,20.594,69.069,0.08,182,8.132,0,0,0.527
0.07,-0.128,0.963,0.002,-49.78,-57.604,14.25,57.65,20.594,69.069,0.059,138,5.846,0,0,-0.44
0.062,-0.128,0.956,0.679,17.824,64.084,14.25,57.65,20.594,69.069,0.083,190,8.176,0,0,0.475
0.066,-0.132,0.963,0.002,-49.824,-57.684,14.25,57.65,20.594,69.069,0.059,134,5.67,0,0,-0.44
0.062,-0.132,0.963,0.002,-49.78,-57.684,14.25,57.65,20.594,69.069,0.057,137,5.802,0,0,-0.475
0.066,-0.128,0.959,0.003,-49.78,-57.604,14.25,57.65,20.594,69.069,0.058,136,5.846,0,0,-0.475
0.062,-0.128,0.963,0.002,-49.736,-57.604,14.25,57.65,20.594,69.069,0.058,130,5.714,0,0,-0.492
0.066,-0.124,0.952,0.003,-49.78,-57.684,14.25,57.65,20.594,69.069,0.057,131,5.626,0,0,-0.422
0.062,-0.128,0.959,0.651,15.011,59.02,14.25,57.65,20.594,69.069,0.084,188,8.352,0,0,0.492
0.062,-0.128,0.959,0.002,-49.868,-57.684,14.25,57.65,20.594,69.069,0.059,130,5.758,0,0,-0.387
0.066,-0.128,0.959,0.002,-49.824,-57.684,14.25,57.65,20.594,69.069,0.058,132,5.934,0,0,-0.527
0.066,-0.128,0.959,0.002,-49.824,-57.684,14.25,57.65,20.594,69.069,0.058,132,5.934,0,0,-0.527
0.066,-0.128,0.963,0.679,17.824,63.925,14.25,57.65,20.594,69.069,0.08,184,8.176,0,0,0.527
0.062,-0.128,0.963,0.002,-49.824,-57.763,14.25,57.65,20.594,69.069,0.057,131,5.626,0,0,-0.475
0.066,-0.124,0.959,0.651,14.967,59.02,14.25,57.65,20.594,69.069,0.08,181,7.868,0,0,0.475
0.066,-0.128,0.963,0.002,-49.78,-57.604,14.25,57.65,20.594,69.069,0.058,129,5.846,0,0,-0.457
0.07,-0.128,0.959,0.002,-49.78,-57.684,14.25,57.65,20.594,69.069,0.058,132,5.714,0,0,-0.457
0.066,-0.117,0.956,0.651,14.923,58.941,14.25,57.65,20.594,69.069,0.08,184,8.176,0,0,0.44
0.066,-0.128,0.959,0.003,-49.692,-57.525,14.25,57.65,20.594,69.069,0.062,135,6.11,0,0,-0.422
0.066,-0.136,0.963,0.677,17.692,63.846,14.25,57.65,20.594,69.069,0.083,189,8.352,0,0,0.527
0.066,-0.128,0.959,0.001,-49.824,-57.684,14.25,57.65,20.594,69.069,0.059,134,5.538,0,0,-0.475
0.058,-0.124,0.963,0.003,-49.78,-57.604,14.25,57.65,20.594,69.069,0.055,131,5.582,0,0,-0.44
0.062,-0.132,0.967,0.002,-49.824,-57.604,14.25,57.65,20.594,69.069,0.059,134,5.846,0,0,-0.369
0.066,-0.124,0.959,0.002,-49.78,-57.604,14.25,57.65,20.594,69.069,0.058,133,5.758,0,0,-0.527
0.07,-0.132,0.963,0.002,-49.78,-57.604,14.25,57.65,20.594,69.069,0.062,140,6.154,0,0,-0.475
0.058,-0.128,0.948,0.65,15.011,59.099,14.25,57.65,20.594,69.069,0.08,185,8,0,0,0.527
0.062,-0.124,0.959,0.003,-49.736,-57.525,14.25,57.65,20.594,69.069,0.058,131,5.714,0,0,-0.475
0.066,-0.128,0.967,0.003,-49.692,-57.525,14.25,57.65,20.594,69.069,0.058,133,5.934,0,0,-0.352
0.066,-0.132,0.963,0.003,-49.78,-57.525,14.25,57.65,20.594,69.069,0.058,132,5.934,0,0,-0.44
0.062,-0.128,0.963,0.003,-49.692,-57.446,14.25,57.65,20.594,69.069,0.056,127,5.626,0,0,-0.475
0.066,-0.128,0.963,0.003,-49.692,-57.525,14.25,57.65,20.594,69.069,0.061,135,5.89,0,0,-0.457
0.066,-0.128,0.959,0.678,17.736,63.767,14.25,57.65,20.594,69.069,0.081,180,8.088,0,0,0.475
0.066,-0.128,0.959,0.678,17.736,63.767,14.25,57.65,20.594,69.069,0.081,180,8.088,0,0,0.475
0.066,-0.132,0.963,0.003,-49.692,-57.525,14.25,57.65,20.594,69.069,0.059,134,6.022,0,0,-0.51
0.066,-0.132,0.959,0.676,17.604,63.925,14.25,57.65,20.594,69.069,0.084,190,8.176,0,0,0.475
0.066,-0.128,0.959,0.677,17.648,63.925,14.25,57.65,20.594,69.069,0.085,189,8.352,0,0,0.527
0.066,-0.128,0.956,0.65,15.011,59.099,14.25,57.65,20.594,69.069,0.081,183,8.22,0,0,0.563
0.066,-0.128,0.963,0.677,17.692,63.846,14.25,57.65,20.594,69.069,0.081,188,8.22,0,0,0.457
0.066,-0.128,0.963,0.001,-49.868,-57.684,14.406,57.931,20.594,69.069,0.061,135,6.11,0,0,-0.492
0.066,-0.132,0.963,0.003,-49.736,-57.604,14.406,57.931,20.594,69.069,0.058,134,5.934,0,0,-0.475
0.062,-0.124,0.967,0.002,-49.868,-57.684,14.406,57.931,20.594,69.069,0.058,129,5.67,0,0,-0.422
0.07,-0.128,0.963,0.679,17.824,64.084,14.406,57.931,20.594,69.069,0.082,189,8.264,0,0,0.492
0.066,-0.128,0.963,0.653,15.407,59.415,14.406,57.931,20.594,69.069,0.082,185,8.176,0,0,0.475
0.066,-0.128,0.967,0.677,17.736,64.004,14.406,57.931,20.594,69.069,0.082,186,8.132,0,0,0.545
0.07,-0.132,0.959,0.003,-49.736,-57.604,14.406,57.931,20.594,69.069,0.059,130,5.846,0,0,-0.369
0.062,-0.128,0.959,0.679,17.648,63.846,14.406,57.931,20.594,69.069,0.081,183,8.132,0,0,0.58
0.066,-0.132,0.963,0.679,17.824,64.004,14.406,57.931,20.594,69.069,0.084,188,8.264,0,0,0.492
0.066,-0.128,0.959,0.677,17.692,63.925,14.406,57.931,20.594,69.069,0.085,192,8.484,0,0,0.492
0.066,-0.124,0.959,0.679,17.78,64.084,14.406,57.931,20.594,69.069,0.082,186,8.132,0,0,0.492
0.07,-0.128,0.952,0.678,17.78,64.163,14.406,57.931,20.594,69.069,0.085,190,8.44,0,0,0.492
0.066,-0.128,0.963,0.003,-49.736,-57.525,14.406,57.931,20.594,69.069,0.062,140,6.33,0,0,-0.492
0.066,-0.128,0.963,0.002,-49.78,-57.604,14.406,57.931,20.594,69.069,0.062,141,6.374,0,0,-0.422
0.066,-0.132,0.963,0.002,-49.78,-57.604,14.406,57.931,20.594,69.069,0.058,136,5.978,0,0,-0.422
0.066,-0.128,0.959,0.003,-49.692,-57.525,14.406,57.931,20.594,69.069,0.058,132,5.802,0,0,-0.475
0.066,-0.124,0.959,0.003,-49.692,-57.446,14.406,57.931,20.594,69.069,0.058,132,5.582,0,0,-0.422
0.062,-0.128,0.963,0.678,17.824,64.004,14.406,57.931,20.594,69.069,0.081,184,8.176,0,0,0.51
0.062,-0.128,0.959,0.652,15.143,59.257,14.406,57.931,20.594,69.069,0.078,186,8.044,0,0,0.545
0.066,-0.128,0.959,0.678,17.692,63.846,14.406,57.931,20.594,69.069,0.081,187,8.176,0,0,0.457
0.058,-0.128,0.963,0.002,-49.824,-57.684,14.406,57.931,20.594,69.069,0.057,131,5.714,0,0,-0.422
0.066,-0.124,0.959,0.001,-49.868,-57.684,14.406,57.931,20.594,69.069,0.058,135,5.978,0,0,-0.492
0.066,-0.132,0.956,0.679,17.824,64.084,14.406,57.931,20.594,69.069,0.082,187,8.176,0,0,0.563
0.062,-0.128,0.967,0.003,-49.78,-57.604,14.406,57.931,20.594,69.069,0.059,130,5.758,0,0,-0.457
0.066,-0.124,0.963,0.659,15.89,60.602,14.406,57.931,20.594,69.069,0.085,194,8.484,0,0,0.492
0.066,-0.132,0.956,0.003,-49.736,-57.525,14.406,57.931,20.594,69.069,0.061,134,6.022,0,0,-0.404
0.062,-0.128,0.963,0.653,4.242,-16.778,14.406,57.931,20.594,69.069,0.063,143,6.11,0,0,-0.545
0.066,-0.128,0.959,0.002,-49.78,-57.604,14.406,57.931,20.594,69.069,0.059,133,6.066,0,0,-0.51
0.066,-0.132,0.967,0.678,17.692,63.925,14.406,57.931,20.594,69.069,0.084,195,8.527,0,0,0.492
0.058,-0.128,0.952,0.678,17.692,63.767,14.406,57.931,20.594,69.069,0.082,189,8.176,0,0,0.545
0.062,-0.124,0.963,0.677,17.736,63.925,14.406,57.931,20.594,69.069,0.085,193,8.44,0,0,0.527
0.066,-0.128,0.959,0.676,17.473,63.292,14.406,57.931,20.594,69.069,0.08,184,8.132,0,0,0.51
0.066,-0.128,0.959,0.678,17.692,63.767,14.406,57.931,20.594,69.069,0.082,186,8.22,0,0,0.475
0.066,-0.124,0.944,0.677,17.692,63.767,14.406,57.931,20.594,69.069,0.08,187,8.264,0,0,0.51
0.066,-0.124,0.963,0.678,17.78,63.846,14.406,57.931,20.594,69.069,0.083,188,8.088,0,0,0.527
0.066,-0.124,0.963,0.003,-49.736,-57.525,14.406,57.931,20.594,69.069,0.058,130,5.538,0,0,-0.527
0.066,-0.128,0.963,0.003,-49.78,-57.604,14.406,57.931,20.594,69.069,0.059,141,6.066,0,0,-0.51
0.066,-0.128,0.963,0.003,-49.824,-57.604,14.406,57.931,20.594,69.069,0.058,133,5.714,0,0,-0.404
0.066,-0.128,0.963,0.003,-49.824,-57.604,14.406,57.931,20.594,69.069,0.058,133,5.714,0,0,-0.404
0.07,-0.128,-0.035,0.002,-49.78,-57.604,14.406,57.931,20.594,69.069,0.061,138,5.934,0,0,-0.369
0.062,-0.124,0.963,0.677,17.78,64.004,14.406,57.931,20.594,69.069,0.082,185,8.132,0,0,0.51
0.062,-0.128,0.963,0.003,-49.736,-57.525,14.406,57.931,20.594,69.069,0.058,132,5.978,0,0,-0.387
0.062,-0.128,0.963,0.659,15.934,60.523,14.406,57.931,20.594,69.069,0.084,190,8.396,0,0,0.51
0.062,-0.128,0.963,0.653,15.187,59.495,14.406,57.931,20.594,69.069,0.08,189,8.264,0,0,0.51
0.07,-0.128,0.963,0.65,14.967,59.02,14.406,57.931,20.594,69.069,0.08,178,7.912,0,0,0.475
0.066,-0.128,0.963,0.651,15.011,59.02,14.406,57.931,20.594,69.069,0.08,189,8.044,0,0,0.51
0.062,-0.132,0.963,0.676,17.56,63.609,14.406,57.931,20.562,69.012,0.081,184,8.132,0,0,0.545
0.066,-0.128,0.948,0.002,-49.824,-57.525,14.406,57.931,20.562,69.012,0.058,128,5.67,0,0,-0.492
0.062,-0.128,0.959,0.651,15.099,59.178,14.406,57.931,20.562,69.012,0.084,190,8.264,0,0,0.527
0.066,-0.128,0.963,0.677,17.648,63.767,14.406,57.931,20.562,69.012,0.082,186,8.264,0,0,0.545
0.066,-0.128,0.963,0.677,17.648,63.767,14.406,57.931,20.562,69.012,0.082,186,8.264,0,0,0.545
0.066,-0.128,0.967,0.677,17.692,63.846,14.406,57.931,20.562,69.012,0.081,185,8.044,0,0,0.545
0.058,-0.124,0.963,0.651,15.099,59.178,14.281,57.706,20.562,69.012,0.083,188,8.308,0,0,0.475
0.062,-0.128,0.963,0.002,-49.78,-57.604,14.281,57.706,20.562,69.012,0.058,130,5.846,0,0,-0.404
0.066,-0.128,0.963,0.002,-49.736,-57.525,14.281,57.706,20.562,69.012,0.056,129,5.626,0,0,-0.527
0.07,-0.128,0.963,0.003,-49.736,-57.604,14.281,57.706,20.562,69.012,0.058,130,5.846,0,0,-0.563
0.066,-0.124,0.967,0.002,-49.78,-57.525,14.281,57.706,20.562,69.012,0.059,138,5.978,0,0,-0.44
0.066,-0.124,0.959,0.678,-49.736,-57.446,14.281,57.706,20.562,69.012,0.062,137,6.066,0,0,-0.404
0.062,-0.128,0.963,0.679,17.824,64.084,14.281,57.706,20.562,69.012,0.084,188,8.396,0,0,0.545
0.058,-0.128,0.963,0.003,-49.736,-57.446,14.281,57.706,20.562,69.012,0.061,135,6.11,0,0,-0.475
0.066,-0.128,0.959,0.002,-49.824,-57.604,14.281,57.706,20.562,69.012,0.059,132,6.154,0,0,-0.492
0.066,-0.132,0.963,0.002,-49.736,-57.525,14.281,57.706,20.562,69.012,0.058,135,5.67,0,0,-0.51
0.066,-0.128,0.963,0.003,-49.78,-57.604,14.281,57.706,20.562,69.012,0.06,134,5.846,0,0,-0.51
0.07,-0.128,0.963,0.654,15.319,59.415,14.281,57.706,20.562,69.012,0.086,193,8.484,0,0,0.44
0.066,-0.128,0.963,0.658,15.67,60.207,14.281,57.706,20.562,69.012,0.083,191,8.22,0,0,0.457
0.062,-0.136,0.959,0.651,15.143,59.257,14.281,57.706,20.562,69.012,0.083,191,8.527,0,0,0.598
0.066,-0.128,0.959,0.678,17.78,64.004,14.281,57.706,20.562,69.012,0.084,189,8.484,0,0,0.545
0.066,-0.128,0.963,0.001,-49.868,-57.763,14.281,57.706,20.562,69.012,0.058,132,5.934,0,0,-0.527
0.07,-0.128,0.963,0.002,-49.78,-57.604,14.281,57.706,20.562,69.012,0.062,140,6.154,0,0,-0.457
0.062,-0.132,0.959,0.678,17.692,63.846,14.281,57.706,20.562,69.012,0.084,191,8.396,0,0,0.545
0.066,-0.128,0.959,0.002,-49.824,-57.684,14.281,57.706,20.562,69.012,0.058,140,5.978,0,0,-0.58
0.062,-0.124,0.963,0.658,15.67,60.048,14.281,57.706,20.562,69.012,0.081,184,8.176,0,0,0.404
0.062,-0.124,0.959,0.651,15.055,59.099,14.281,57.706,20.562,69.012,0.08,184,8,0,0,0.545
0.078,-0.132,0.952,0.678,17.868,64.084,14.281,57.706,20.562,69.012,0.08,184,8.044,0,0,0.527
0.066,-0.128,0.959,0.655,15.495,59.811,14.281,57.706,20.562,69.012,0.081,181,7.956,0,0,0.492
0.062,-0.128,0.952,0.679,17.824,64.004,14.281,57.706,20.562,69.012,0.081,183,8.088,0,0,0.51
0.07,-0.136,0.963,0.003,-49.692,-57.367,14.281,57.706,20.562,69.012,0.059,134,5.802,0,0,-0.457
0.07,-0.128,0.967,0.656,15.538,59.89,14.281,57.706,20.562,69.012,0.081,181,8.044,0,0,0.475
0.066,-0.132,0.963,0.679,17.824,64.084,14.281,57.706,20.562,69.012,0.08,185,8.088,0,0,0.492
0.066,-0.128,0.963,0.678,17.736,63.846,14.281,57.706,20.562,69.012,0.08,186,8.132,0,0,0.475
0.062,-0.128,0.963,0.678,17.692,63.846,14.281,57.706,20.562,69.012,0.083,187,8.22,0,0,0.457
0.066,-0.128,0.963,0.003,-49.692,-57.525,14.281,57.706,20.562,69.012,0.058,133,5.758,0,0,-0.527
0.066,-0.128,0.956,0.003,-49.78,-57.604,14.281,57.706,20.562,69.012,0.059,131,5.758,0,0,-0.475
0.066,-0.128,0.956,0.003,-49.78,-57.604,14.281,57.706,20.562,69.012,0.059,131,5.758,0,0,-0.475
0.066,-0.124,0.967,0.003,-49.736,-57.604,14.281,57.706,20.562,69.012,0.059,134,5.89,0,0,-0.51
0.066,-0.124,0.963,0.003,-49.692,-57.525,14.281,57.706,20.562,69.012,0.058,131,5.714,0,0,-0.44
0.058,-0.121,0.948,0.677,17.692,63.767,14.281,57.706,20.562,69.012,0.084,191,8.308,0,0,0.545
0.062,-0.128,0.959,0.677,17.604,63.767,14.281,57.706,20.562,69.012,0.084,196,8.615,0,0,0.51
0.066,-0.128,0.963,0.677,17.648,63.846,14.281,57.706,20.562,69.012,0.083,189,8.308,0,0,0.563
0.062,-0.128,0.963,0.657,15.626,59.969,14.281,57.706,20.562,69.012,0.082,188,8.22,0,0,0.404
0.066,-0.132,-0.031,0.65,14.923,58.862,14.281,57.706,20.562,69.012,0.078,176,8,0,0,0.51
0.058,-0.132,0.963,0.676,17.692,63.846,14.281,57.706,20.562,69.012,0.083,191,8.264,0,0,0.51
0.066,-0.132,0.963,0.677,17.736,63.925,14.281,57.706,20.562,69.012,0.084,190,8.264,0,0,0.475
0.07,-0.132,0.963,0.003,-49.692,-57.525,14.281,57.706,20.562,69.012,0.062,138,6.022,0,0,-0.44
0.07,-0.132,0.963,0.003,-49.692,-57.525,14.281,57.706,20.562,69.012,0.062,138,6.022,0,0,-0.44
0.07,-0.124,0.967,0.651,15.143,59.178,14.281,57.706,20.562,69.012,0.08,182,7.868,0,0,0.563
0.07,-0.132,0.963,0.677,17.692,63.925,14.281,57.706,20.625,69.125,0.086,187,8.396,0,0,0.633
0.066,-0.128,0.963,0.65,14.923,58.941,14.281,57.706,20.625,69.125,0.081,178,8,0,0,0.475
0.066,-0.128,0.963,0.652,15.099,59.178,14.281,57.706,20.625,69.125,0.08,187,8.308,0,0,0.475
0.062,-0.128,0.963,0.004,-49.648,-57.446,14.281,57.706,20.625,69.125,0.062,136,6.066,0,0,-0.457
0.066,-0.128,0.963,0.004,-49.604,-57.367,14.281,57.706,20.625,69.125,0.057,129,5.758,0,0,-0.422
0.062,-0.124,0.967,0.003,-49.736,-57.525,14.281,57.706,20.625,69.125,0.058,136,5.802,0,0,-0.422
0.066,-0.128,0.959,0.003,-49.692,-57.446,13.625,56.525,20.625,69.125,0.065,149,6.505,0,0,-0.44
0.066,-0.124,0.963,0.003,-49.736,-57.446,13.625,56.525,20.625,69.125,0.064,142,6.286,0,0,-0.422
0.066,-0.124,0.963,0.678,17.78,63.925,13.625,56.525,20.625,69.125,0.08,192,8.308,0,0,0.545
0.062,-0.128,0.963,0.003,-49.736,-57.604,13.625,56.525,20.625,69.125,0.058,129,5.714,0,0,-0.492
0.062,-0.121,0.959,0.679,17.868,64.242,13.625,56.525,20.625,69.125,0.082,186,8.308,0,0,0.492
0.066,-0.124,0.956,0.003,-49.736,-57.525,13.625,56.525,20.625,69.125,0.061,136,6.066,0,0,-0.475
0.066,-0.128,0.963,0.003,-49.78,-57.604,13.625,56.525,20.625,69.125,0.06,137,5.802,0,0,-0.422
0.062,-0.128,0.963,0.003,-49.78,-57.604,13.625,56.525,20.625,69.125,0.06,136,5.758,0,0,-0.475
0.066,-0.128,0.963,0.679,17.824,64.163,13.625,56.525,20.625,69.125,0.084,189,8.352,0,0,0.527
0.066,-0.132,0.963,0.679,17.868,64.084,13.625,56.525,20.625,69.125,0.081,185,8.088,0,0,0.545
0.066,-0.132,0.963,0.679,17.868,64.084,13.625,56.525,20.625,69.125,0.081,185,8.088,0,0,0.545
0.066,-0.132,0.963,0.678,17.78,64.163,13.625,56.525,20.625,69.125,0.083,189,8.264,0,0,0.545
0.062,-0.128,0.963,0.656,15.495,59.969,13.625,56.525,20.625,69.125,0.081,191,8.264,0,0,0.457
0.066,-0.124,0.959,0.652,15.099,59.099,13.625,56.525,20.625,69.125,0.08,180,7.912,0,0,0.475
0.062,-0.128,0.967,0.003,-49.736,-57.525,13.625,56.525,20.625,69.125,0.058,133,5.582,0,0,-0.457
0.066,-0.128,0.956,0.656,15.626,60.048,13.625,56.525,20.625,69.125,0.08,183,8.132,0,0,0.527
0.066,-0.128,0.963,0.003,-49.736,-57.604,13.625,56.525,20.625,69.125,0.058,129,5.714,0,0,-0.475
0.066,-0.128,0.963,0.651,15.055,59.099,13.625,56.525,20.625,69.125,0.08,182,8.176,0,0,0.492
0.066,-0.128,0.963,0.654,15.407,59.811,13.625,56.525,20.625,69.125,0.08,181,7.868,0,0,0.51
0.062,-0.124,0.963,0.678,17.78,63.767,13.625,56.525,20.625,69.125,0.08,183,7.956,0,0,0.51
0.066,-0.132,0.963,0.651,15.011,59.099,13.625,56.525,20.625,69.125,0.079,179,7.824,0,0,0.51
0.062,-0.132,0.963,0.651,15.143,59.178,13.625,56.525,20.625,69.125,0.081,186,8.044,0,0,0.457
0.062,-0.128,0.959,0.66,15.934,60.681,13.625,56.525,20.625,69.125,0.084,194,8.44,0,0,0.475
0.062,-0.128,0.967,0.679,17.912,64.163,13.625,56.525,20.625,69.125,0.081,182,8.088,0,0,0.527
0.062,-0.128,0.948,0.679,17.824,64.084,13.625,56.525,20.625,69.125,0.081,183,8.132,0,0,0.545
0.066,-0.124,0.963,0.679,17.868,64.084,13.625,56.525,20.625,69.125,0.085,193,8.484,0,0,0.492
0.062,-0.128,0.967,0.002,-49.78,-57.604,13.625,56.525,20.625,69.125,0.058,132,5.758,0,0,-0.475
0.062,-0.128,0.959,0.678,17.824,64.004,13.625,56.525,20.625,69.125,0.085,190,8.308,0,0,0.58
0.066,-0.128,0.963,0.651,15.011,58.941,13.625,56.525,20.625,69.125,0.087,201,8.527,0,0,0.492
0.066,-0.124,0.963,0.677,17.648,63.767,13.625,56.525,20.625,69.125,0.084,191,8.44,0,0,0.545
0.066,-0.124,0.963,0.678,17.736,63.767,13.625,56.525,20.625,69.125,0.084,190,8.615,0,0,0.563
0.066,-0.128,0.967,0.678,17.692,63.767,13.625,56.525,20.625,69.125,0.08,180,8.088,0,0,0.545
0.066,-0.128,0.963,0.003,-49.736,-57.525,13.625,56.525,20.625,69.125,0.056,129,5.626,0,0,-0.475
0.062,-0.124,0.963,0.002,-49.824,-57.684,13.625,56.525,20.625,69.125,0.064,136,6.154,0,0,-0.404
0.066,-0.124,0.963,0.002,-49.868,-57.763,13.625,56.525,20.625,69.125,0.056,130,5.89,0,0,-0.492
0.066,-0.124,0.963,0.002,-49.868,-57.684,13.625,56.525,20.625,69.125,0.056,130,5.758,0,0,-0.545
0.066,-0.124,0.959,0.001,-49.868,-57.684,13.625,56.525,20.625,69.125,0.059,136,6.154,0,0,-0.475
0.058,-0.124,0.967,0.677,17.648,63.846,13.625,56.525,20.625,69.125,0.084,187,8.352,0,0,0.475
0.062,-0.128,0.959,0.002,-49.824,-57.604,13.625,56.525,20.625,69.125,0.056,131,5.934,0,0,-0.475
0.051,-0.132,0.963,0.003,-49.736,-57.525,13.625,56.525,20.625,69.125,0.059,136,5.89,0,0,-0.457
0.066,-0.124,0.959,0.002,-49.824,-57.684,13.625,56.525,20.625,69.125,0.058,132,5.846,0,0,-0.352
0.058,-0.124,0.956,0.003,-49.78,-57.604,13.625,56.525,20.625,69.125,0.06,142,6.198,0,0,-0.44
0.07,-0.128,0.963,0.002,-49.78,-57.525,13.625,56.525,20.625,69.125,0.061,140,6.198,0,0,-0.457
0.062,-0.128,0.956,0.003,-49.736,-57.525,13.625,56.525,20.625,69.125,0.056,128,5.67,0,0,-0.492
0.066,-0.132,0.959,0.679,17.824,63.925,13.625,56.525,20.625,69.125,0.082,185,8.132,0,0,0.527
0.066,-0.128,0.959,0.678,17.78,63.925,13.625,56.525,20.625,69.125,0.083,184,8.176,0,0,0.563
0.066,-0.128,0.963,0.676,17.692,63.688,13.625,56.525,20.625,69.125,0.081,182,8,0,0,0.527
0.058,-0.128,0.967,0.677,17.736,63.925,13.625,56.525,20.625,69.125,0.08,181,8,0,0,0.527
0.066,-0.128,0.959,0.677,17.692,63.767,13.625,56.525,20.625,69.125,0.082,188,8.396,0,0,0.563
0.062,-0.124,0.963,0.002,-49.78,-57.525,13.625,56.525,20.625,69.125,0.058,132,5.714,0,0,-0.387
0.066,-0.124,0.959,0.002,-49.78,-57.604,13.625,56.525,20.625,69.125,0.056,130,5.714,0,0,-0.475
0.062,-0.128,0.959,0.003,-49.736,-57.525,13.906,57.031,20.625,69.125,0.06,141,6.11,0,0,-0.51
0.062,-0.124,0.959,0.002,-49.824,-57.604,13.906,57.031,20.625,69.125,0.062,140,6.374,0,0,-0.44
0.07,-0.132,0.959,0.002,-49.824,-57.604,13.906,57.031,20.625,69.125,0.063,140,6.286,0,0,-0.457
0.062,-0.128,0.967,0.678,17.824,64.004,13.906,57.031,20.625,69.125,0.083,191,8.396,0,0,0.563
0.066,-0.128,0.963,0.002,-49.78,-57.684,13.906,57.031,20.625,69.125,0.059,134,5.978,0,0,-0.492
0.07,-0.128,0.959,0.678,17.824,64.163,13.906,57.031,20.625,69.125,0.091,201,8.835,0,0,0.545
0.066,-0.132,0.959,0.678,17.824,64.163,13.906,57.031,20.625,69.125,0.083,188,8.396,0,0,0.563
0.066,-0.128,0.956,0.678,17.78,64.004,13.906,57.031,20.625,69.125,0.08,186,8.088,0,0,0.545
0.066,-0.128,0.959,0.679,17.824,64.084,13.906,57.031,20.625,69.125,0.083,188,8.176,0,0,0.492
0.066,-0.132,0.959,0.679,17.824,64.242,13.906,57.031,20.625,69.125,0.082,184,8.22,0,0,0.51
0.066,-0.128,0.959,0.003,-49.692,-57.525,13.906,57.031,20.625,69.125,0.057,131,5.89,0,0,-0.404
0.062,-0.124,0.956,0.002,-49.78,-57.525,13.906,57.031,20.625,69.125,0.058,134,5.714,0,0,-0.457
0.066,-0.124,0.956,0.679,17.824,64.163,13.906,57.031,20.625,69.125,0.083,189,8.264,0,0,0.492
0.062,-0.132,0.963,0.003,-49.692,-57.604,13.906,57.031,20.625,69.125,0.058,129,5.802,0,0,-0.44
0.062,-0.132,0.963,0.003,-49.692,-57.604,13.906,57.031,20.625,69.125,0.058,129,5.802,0,0,-0.44
0.062,-0.128,0.959,0.678,17.78,64.163,13.906,57.031,20.625,69.125,0.085,193,8.659,0,0,0.51
0.066,-0.128,0.959,0.678,17.78,64.084,13.906,57.031,20.625,69.125,0.084,190,8.308,0,0,0.51
0.066,-0.132,0.963,0.678,17.692,64.004,13.906,57.031,20.625,69.125,0.08,185,8,0,0,0.51
0.062,-0.128,0.959,0.002,-49.78,-57.604,13.906,57.031,20.625,69.125,0.059,135,5.89,0,0,-0.51
0.062,-0.132,0.959,0.002,-49.824,-57.604,13.906,57.031,20.625,69.125,0.061,137,5.978,0,0,-0.44
0.062,-0.132,0.959,0.002,-49.824,-57.604,13.906,57.031,20.625,69.125,0.061,137,5.978,0,0,-0.44
0.066,-0.136,0.959,0.661,16.11,60.919,13.906,57.031,20.625,69.125,0.083,186,8.176,0,0,0.527
0.062,-0.124,0.963,0.001,-49.868,-57.763,13.906,57.031,20.625,69.125,0.061,141,6.154,0,0,-0.51
0.07,-0.132,0.963,0.679,17.78,63.925,13.906,57.031,20.625,69.125,0.081,190,8.264,0,0,0.598
0.062,-0.124,0.963,0.679,17.78,63.925,13.906,57.031,20.625,69.125,0.08,183,8.044,0,0,0.545
0.062,-0.132,0.959,0.678,17.78,64.004,13.906,57.031,20.625,69.125,0.082,184,8.22,0,0,0.51
0.066,-0.128,0.963,0.651,15.099,59.099,13.906,57.031,20.625,69.125,0.081,184,8.132,0,0,0.527
0.066,-0.128,0.959,0.002,-49.78,-57.604,13.906,57.031,20.625,69.125,0.058,133,5.978,0,0,-0.334
0.066,-0.128,0.959,0.003,-49.736,-57.446,13.906,57.031,20.625,69.125,0.058,136,5.89,0,0,-0.457
0.062,-0.132,0.959,0.652,15.187,59.257,13.906,57.031,20.625,69.125,0.082,182,8.088,0,0,0.475
0.066,-0.128,0.963,0.651,14.967,58.862,13.906,57.031,20.625,69.125,0.082,189,8.308,0,0,0.492
0.062,-0.132,0.963,0.652,15.187,59.257,13.906,57.031,20.625,69.125,0.081,185,8.22,0,0,0.387
0.07,-0.132,0.963,0.658,15.714,60.286,13.906,57.031,20.625,69.125,0.08,183,7.912,0,0,0.475
0.062,-0.128,0.971,0.001,-49.868,-57.763,13.906,57.031,20.625,69.125,0.059,129,5.67,0,0,-0.404
0.066,-0.128,0.956,0.002,-49.78,-57.604,13.906,57.031,20.625,69.125,0.059,138,5.758,0,0,-0.475
0.066,-0.128,0.963,0.003,-49.78,-57.604,13.906,57.031,20.625,69.125,0.061,133,6.022,0,0,-0.545
0.062,-0.128,0.963,0.001,-49.868,-57.763,13.906,57.031,20.625,69.125,0.058,138,5.934,0,0,-0.44
0.07,-0.124,0.963,0.002,-49.824,-57.604,13.906,57.031,20.625,69.125,0.058,134,5.934,0,0,-0.404
0.062,-0.128,0.963,0.653,15.187,59.257,13.906,57.031,20.625,69.125,0.082,183,8.132,0,0,0.457
0.066,-0.128,0.959,0.002,-49.824,-57.604,13.906,57.031,20.625,69.125,0.061,137,5.89,0,0,-0.492
0.062,-0.128,0.959,0.677,17.648,63.925,13.906,57.031,20.625,69.125,0.08,184,8.044,0,0,0.492
0.066,-0.124,0.956,0.003,-49.736,-57.446,13.906,57.031,20.625,69.125,0.058,131,5.846,0,0,-0.475
0.062,-0.136,0.959,0.003,-49.648,-57.367,13.906,57.031,20.625,69.125,0.06,134,6.154,0,0,-0.475
0.066,-0.132,0.959,0.677,17.692,63.846,13.906,57.031,20.625,69.125,0.084,188,8.396,0,0,0.527
0.066,-0.128,0.959,0.003,-49.78,-57.525,13.906,57.031,20.625,69.125,0.059,137,5.934,0,0,-0.457
0.07,-0.132,0.963,0.654,15.319,59.495,13.906,57.031,20.625,69.125,0.084,191,8.44,0,0,0.475
0.066,-0.124,0.963,0.676,17.648,63.767,13.906,57.031,20.625,69.125,0.085,190,8.176,0,0,0.422
0.062,-0.128,0.959,0.676,17.692,63.688,13.906,57.031,20.625,69.125,0.082,185,8.176,0,0,0.58
0.066,-0.128,0.959,0.677,17.692,63.925,13.906,57.031,20.625,69.125,0.08,186,8.308,0,0,0.545
0.066,-0.124,0.959,0.676,17.648,63.767,13.906,57.031,20.625,69.125,0.084,191,8.396,0,0,0.545
0.062,-0.128,0.959,0.002,-49.78,-57.604,15.594,60.069,20.625,69.125,0.059,138,5.846,0,0,-0.352
0.058,-0.128,0.963,0.003,-49.692,-57.446,15.594,60.069,20.625,69.125,0.063,142,5.802,0,0,-0.545
0.066,-0.128,0.963,0.679,17.868,64.084,15.594,60.069,20.625,69.125,0.083,186,8.264,0,0,0.527
0.062,-0.128,0.959,0.679,17.824,64.004,15.594,60.069,20.625,69.125,0.083,192,8.264,0,0,0.51
0.066,-0.132,0.959,0.679,17.868,64.084,15.594,60.069,20.625,69.125,0.084,192,8.396,0,0,0.545
0.066,-0.132,0.963,0.678,17.736,63.925,15.594,60.069,20.625,69.125,0.082,187,8.088,0,0,0.58
0.062,-0.124,0.959,0.679,17.824,64.084,15.594,60.069,20.625,69.125,0.084,193,8.308,0,0,0.58
0.07,-0.128,0.959,0.002,-49.824,-57.525,15.594,60.069,20.625,69.125,0.06,137,5.978,0,0,-0.492
0.062,-0.124,0.959,0.003,-49.736,-57.604,15.594,60.069,20.625,69.125,0.067,150,6.681,0,0,-0.422
0.062,-0.136,0.959,0.002,-49.78,-57.604,15.594,60.069,20.625,69.125,0.062,138,6.022,0,0,-0.404
0.062,-0.136,0.959,0.002,-49.78,-57.604,15.594,60.069,20.625,69.125,0.062,138,6.022,0,0,-0.404
0.062,-0.128,0.959,0.679,17.78,63.846,15.594,60.069,20.625,69.125,0.083,187,8.264,0,0,0.51
0.062,-0.132,0.959,0.679,17.78,63.925,15.594,60.069,20.625,69.125,0.081,186,8.22,0,0,0.492
0.066,-0.128,0.956,0.678,17.824,64.004,15.594,60.069,20.625,69.125,0.082,185,8.132,0,0,0.51
0.07,-0.128,0.963,0.678,17.824,64.163,15.594,60.069,20.625,69.125,0.084,194,8.352,0,0,0.58
0.066,-0.124,0.956,0.678,17.692,63.767,15.594,60.069,20.625,69.125,0.082,189,8.22,0,0,0.422
0.066,-0.128,0.959,0.651,15.055,59.099,15.594,60.069,20.625,69.125,0.083,188,8.264,0,0,0.527
0.062,-0.128,0.959,0.003,-49.736,-57.604,15.594,60.069,20.625,69.125,0.058,130,5.626,0,0,-0.387
0.07,-0.124,0.948,0.002,-49.868,-57.604,15.594,60.069,20.625,69.125,0.059,128,6.11,0,0,-0.457
0.062,-0.128,0.963,0.003,-49.692,-57.525,15.594,60.069,20.625,69.125,0.061,134,5.978,0,0,-0.475
0.066,-0.132,0.959,0.002,-49.736,-57.604,15.594,60.069,20.625,69.125,0.06,133,6.066,0,0,-0.475
0.062,-0.121,0.959,0.002,-49.78,-57.525,15.594,60.069,20.625,69.125,0.058,132,5.89,0,0,-0.404
0.066,-0.128,0.956,0.677,17.692,63.846,15.594,60.069,20.625,69.125,0.085,190,8.484,0,0,0.633
0.066,-0.121,0.956,0.679,17.868,64.163,15.594,60.069,20.625,69.125,0.083,187,8.176,0,0,0.527
0.066,-0.132,0.959,0.002,-49.78,-57.604,15.594,60.069,20.625,69.125,0.059,132,5.846,0,0,-0.404
0.062,-0.124,0.959,0.658,15.451,59.732,15.594,60.069,20.625,69.125,0.081,188,8.308,0,0,0.422
0.066,-0.128,0.963,0.651,15.011,59.02,15.594,60.069,20.625,69.125,0.08,182,7.824,0,0,0.44
0.07,-0.128,0.963,0.652,15.143,59.02,15.594,60.069,20.625,69.125,0.079,181,8,0,0,0.44
0.07,-0.132,0.956,0.677,17.648,63.609,15.594,60.069,20.625,69.125,0.081,183,8.132,0,0,0.51
0.062,-0.124,0.956,0.677,17.692,63.846,15.594,60.069,20.625,69.125,0.084,187,8.088,0,0,0.527
0.062,-0.128,0.963,0.676,17.692,63.846,15.594,60.069,20.625,69.125,0.082,189,8.264,0,0,0.545
0.062,-0.128,0.963,0.676,17.692,63.846,15.594,60.069,20.625,69.125,0.082,189,8.264,0,0,0.545
0.066,-0.128,0.956,0.679,17.78,63.846,15.594,60.069,20.625,69.125,0.084,187,8.264,0,0,0.58
0.066,-0.128,0.959,0.677,17.692,63.767,15.594,60.069,20.625,69.125,0.083,188,8.308,0,0,0.545
0.066,-0.128,0.959,0.676,17.692,63.846,15.594,60.069,20.625,69.125,0.081,182,8.132,0,0,0.527
0.062,-0.132,-0.039,0.002,-49.78,-57.525,15.594,60.069,20.625,69.125,0.06,135,6.242,0,0,-0.492
0.066,-0.124,0.959,0.003,-49.78,-57.604,15.594,60.069,20.625,69.125,0.062,140,6.286,0,0,-0.475
0.062,-0.132,0.959,0.678,17.78,63.846,15.594,60.069,20.625,69.125,0.084,185,8.22,0,0,0.527
0.066,-0.132,0.959,0.677,17.648,63.767,15.594,60.069,20.625,69.125,0.081,189,8.132,0,0,0.563
0.062,-0.128,0.959,0.677,17.648,63.767,15.594,60.069,20.625,69.125,0.082,188,8.352,0,0,0.545
0.062,-0.124,-0.039,0.677,17.736,63.846,15.594,60.069,20.625,69.125,0.081,182,7.956,0,0,0.563
0.062,-0.124,0.959,0.002,-49.78,-57.525,15.594,60.069,20.625,69.125,0.058,128,5.89,0,0,-0.492
0.062,-0.124,0.959,0.677,17.648,63.609,15.594,60.069,20.625,69.125,0.083,183,8.044,0,0,0.598
0.066,-0.132,0.959,0.676,17.648,63.688,15.594,60.069,20.625,69.125,0.08,184,8.22,0,0,0.51
0.062,-0.124,0.963,0.677,17.692,63.767,15.594,60.069,20.625,69.125,0.082,185,8.088,0,0,0.527
0.062,-0.124,0.959,0.678,17.78,63.767,15.594,60.069,20.594,69.069,0.081,183,8.132,0,0,0.44
0.066,-0.124,0.959,0.677,17.604,63.53,15.594,60.069,20.594,69.069,0.081,187,8.308,0,0,0.545
0.058,-0.124,0.963,0.003,-49.736,-57.604,15.594,60.069,20.594,69.069,0.058,128,5.802,0,0,-0.44
0.07,-0.132,0.963,0.652,15.099,59.099,15.594,60.069,20.594,69.069,0.081,189,8.308,0,0,0.457
0.066,-0.128,0.959,0.677,17.648,63.609,15.594,60.069,20.594,69.069,0.079,182,8,0,0,0.51
0.062,-0.128,0.959,0.651,15.055,58.862,15.812,60.463,20.594,69.069,0.081,180,8,0,0,0.527
0.066,-0.132,0.963,0.65,14.967,58.862,15.812,60.463,20.594,69.069,0.08,181,7.868,0,0,0.492
0.066,-0.132,0.959,0.003,-49.736,-57.525,15.812,60.463,20.594,69.069,0.057,128,5.802,0,0,-0.44
0.066,-0.124,0.959,0.003,-49.736,-57.525,15.812,60.463,20.594,69.069,0.06,142,6.11,0,0,-0.527
0.07,-0.128,0.959,0.678,17.78,64.004,15.812,60.463,20.594,69.069,0.083,188,8.264,0,0,0.58
0.066,-0.128,0.959,0.651,15.055,59.257,15.812,60.463,20.594,69.069,0.08,183,8.044,0,0,0.492
0.066,-0.128,0.959,0.677,17.692,63.846,15.812,60.463,20.594,69.069,0.08,183,7.912,0,0,0.527
0.062,-0.121,0.952,0.677,17.648,63.925,15.812,60.463,20.594,69.069,0.082,184,8.308,0,0,0.527
0.07,-0.124,0.959,0.651,15.055,59.099,15.812,60.463,20.594,69.069,0.082,187,8.264,0,0,0.545
0.066,-0.121,0.959,0.678,17.824,64.004,15.812,60.463,20.594,69.069,0.084,192,8.308,0,0,0.51
0.066,-0.128,0.959,0.657,15.67,60.207,15.812,60.463,20.594,69.069,0.082,187,8.264,0,0,0.51
0.066,-0.132,0.956,0.678,17.868,64.163,15.812,60.463,20.594,69.069,0.082,184,8.22,0,0,0.545
0.066,-0.132,0.959,0.679,17.824,64.004,15.812,60.463,20.594,69.069,0.082,189,8.308,0,0,0.492
0.066,-0.128,0.959,0.678,17.78,64.004,15.812,60.463,20.594,69.069,0.083,187,8.176,0,0,0.51
0.062,-0.124,0.959,0.003,-49.692,-57.446,15.812,60.463,20.594,69.069,0.058,126,5.582,0,0,-0.492
0.062,-0.128,0.959,0.004,-49.692,-57.446,15.812,60.463,20.594,69.069,0.061,133,5.802,0,0,-0.51
0.062,-0.128,-0.039,0.003,-49.78,-57.684,15.812,60.463,20.594,69.069,0.057,134,5.714,0,0,-0.404
0.066,-0.132,0.959,0.002,-49.78,-57.604,15.812,60.463,20.594,69.069,0.062,137,6.022,0,0,-0.44
0.062,-0.124,0.959,0.002,-49.78,-57.604,15.812,60.463,20.594,69.069,0.058,135,6.022,0,0,-0.422
0.066,-0.132,0.967,0.651,15.055,59.099,15.812,60.463,20.594,69.069,0.084,191,8.264,0,0,0.457
0.066,-0.128,0.959,0.659,15.802,60.681,15.812,60.463,20.594,69.069,0.084,189,8.484,0,0,0.545
0.066,-0.124,0.963,0.679,17.868,64.084,15.812,60.463,20.594,69.069,0.082,184,8.22,0,0,0.545
0.066,-0.124,0.963,0.679,17.868,64.084,15.812,60.463,20.594,69.069,0.082,184,8.22,0,0,0.545
0.066,-0.128,0.959,0.002,-49.824,-57.684,15.812,60.463,20.594,69.069,0.065,178,6.286,0,0,-0.404
0.066,-0.132,0.956,0.002,-49.912,-57.763,15.812,60.463,20.594,69.069,0.057,131,5.714,0,0,-0.404
0.066,-0.132,0.959,0.677,17.692,63.846,15.812,60.463,20.594,69.069,0.084,187,8.132,0,0,0.492
0.066,-0.128,0.963,0.003,-49.692,-57.446,15.812,60.463,20.594,69.069,0.061,137,6.022,0,0,-0.44
0.062,-0.128,0.963,0.654,15.363,59.574,15.812,60.463,20.594,69.069,0.081,182,8.088,0,0,0.475
0.07,-0.124,0.967,0.003,-49.692,-57.525,15.812,60.463,20.594,69.069,0.057,129,5.758,0,0,-0.422
0.066,-0.132,0.959,0.003,-49.692,-57.446,15.812,60.463,20.594,69.069,0.058,129,5.934,0,0,-0.422
0.066,-0.128,0.963,0.003,-49.692,-57.446,15.812,60.463,20.594,69.069,0.058,136,5.846,0,0,-0.475
0.062,-0.124,0.959,0.676,17.648,63.767,15.812,60.463,20.594,69.069,0.082,191,8.352,0,0,0.563
0.062,-0.124,0.959,0.676,17.648,63.767,15.812,60.463,20.594,69.069,0.082,191,8.352,0,0,0.563
0.066,-0.128,0.956,0.003,-49.736,-57.604,15.812,60.463,20.594,69.069,0.056,133,5.89,0,0,-0.404
0.066,-0.128,0.963,0.677,17.736,63.925,15.812,60.463,20.594,69.069,0.081,184,8.176,0,0,0.51
0.066,-0.128,0.963,0.677,17.736,63.925,15.812,60.463,20.594,69.069,0.081,184,8.176,0,0,0.51
0.066,-0.132,0.959,0.651,15.099,59.336,15.812,60.463,20.594,69.069,0.08,180,7.956,0,0,0.51
0.058,-0.128,0.956,0.676,17.692,63.767,15.812,60.463,20.594,69.069,0.081,185,8.22,0,0,0.527
0.058,-0.128,0.956,0.676,17.692,63.767,15.812,60.463,20.594,69.069,0.081,185,8.22,0,0,0.527
0.066,-0.132,0.963,0.676,17.604,63.688,15.812,60.463,20.594,69.069,0.084,195,8.352,0,0,0.527
0.07,-0.132,0.963,0.678,17.78,63.767,15.812,60.463,20.594,69.069,0.083,188,8.22,0,0,0.527
0.07,-0.132,0.963,0.65,15.011,58.941,15.812,60.463,20.594,69.069,0.08,177,7.956,0,0,0.527
0.066,-0.128,0.963,0.658,15.802,60.523,15.812,60.463,20.594,69.069,0.079,182,7.692,0,0,0.492
0.062,-0.128,0.959,0.676,17.648,63.767,15.812,60.463,20.594,69.069,0.084,192,8.396,0,0,0.51
0.066,-0.128,0.967,0.651,15.055,58.941,15.812,60.463,20.594,69.069,0.083,187,8.132,0,0,0.457
0.066,-0.128,0.963,0.659,15.802,60.444,15.812,60.463,20.594,69.069,0.079,180,8.044,0,0,0.492
0.066,-0.128,0.959,0.654,15.187,59.336,15.812,60.463,20.594,69.069,0.079,181,8.132,0,0,0.492
0.058,-0.136,0.959,0.651,15.011,58.862,15.812,60.463,20.594,69.069,0.083,185,8.22,0,0,0.475
0.066,-0.124,0.959,0.677,17.692,63.688,15.812,60.463,20.594,69.069,0.083,191,8.22,0,0,0.545
0.062,-0.132,0.959,0.678,17.736,63.688,15.812,60.463,20.594,69.069,0.08,182,8,0,0,0.563
0.066,-0.128,0.963,0.678,17.78,63.925,15.812,60.463,20.594,69.069,0.086,193,8.527,0,0,0.51
0.07,-0.128,0.952,0.677,17.648,63.767,15.812,60.463,20.594,69.069,0.084,189,8.396,0,0,0.545
0.062,-0.124,0.963,0.676,17.604,63.767,15.125,59.225,20.594,69.069,0.083,182,8.088,0,0,0.51
0.066,-0.124,0.959,0.653,15.319,59.574,15.125,59.225,20.594,69.069,0.08,181,7.912,0,0,0.527
0.066,-0.124,0.959,0.679,17.78,64.004,15.125,59.225,20.594,69.069,0.08,183,7.956,0,0,0.51
0.062,-0.128,0.963,0.002,-49.824,-57.604,15.125,59.225,20.594,69.069,0.057,129,5.758,0,0,-0.475
0.062,-0.132,0.959,0.003,-49.736,-57.525,15.125,59.225,20.594,69.069,0.059,134,5.758,0,0,-0.404
0.062,-0.124,0.959,0.003,-49.692,-57.604,15.125,59.225,20.594,69.069,0.06,136,6.022,0,0,-0.475
0.066,-0.128,0.959,0.003,-49.736,-57.604,15.125,59.225,20.594,69.069,0.058,139,6.066,0,0,-0.422
0.066,-0.124,0.959,0.002,-49.78,-57.525,15.125,59.225,20.594,69.069,0.061,143,6.286,0,0,-0.422
0.07,-0.128,0.959,0.677,17.692,63.846,15.125,59.225,20.594,69.069,0.082,192,8.308,0,0,0.527
0.07,-0.128,0.963,0.001,-49.868,-57.763,15.125,59.225,20.594,69.069,0.055,130,5.538,0,0,-0.527
0.066,-0.124,0.959,0.002,-49.78,-57.604,15.125,59.225,20.594,69.069,0.06,139,6.022,0,0,-0.422
0.066,-0.128,0.963,0.001,-49.868,-57.842,15.125,59.225,20.594,69.069,0.058,137,6.11,0,0,-0.44
0.066,-0.128,0.956,0.002,-49.78,-57.684,15.125,59.225,20.594,69.069,0.06,139,5.934,0,0,-0.51
0.062,-0.124,0.959,0.677,17.78,64.084,15.125,59.225,20.594,69.069,0.084,188,8.308,0,0,0.527
0.062,-0.128,0.963,0.653,15.275,59.415,15.125,59.225,20.594,69.069,0.082,188,8.176,0,0,0.457
0.066,-0.124,0.967,0.678,17.78,64.084,15.125,59.225,20.594,69.069,0.082,185,8.132,0,0,0.51
0.066,-0.128,0.959,0.653,15.231,59.336,15.125,59.225,20.594,69.069,0.082,181,8,0,0,0.527
0.066,-0.132,0.959,0.677,17.736,63.925,15.125,59.225,20.594,69.069,0.083,188,8.352,0,0,0.475
0.066,-0.128,0.959,0.004,-49.648,-57.446,15.125,59.225,20.594,69.069,0.058,129,5.802,0,0,-0.422
0.07,-0.132,0.959,0.002,-49.736,-57.525,15.125,59.225,20.594,69.069,0.058,128,5.626,0,0,-0.44
0.07,-0.132,0.959,0.651,15.011,59.257,15.125,59.225,20.594,69.069,0.08,182,8.132,0,0,0.475
0.066,-0.128,-0.039,0.654,15.275,59.415,15.125,59.225,20.594,69.069,0.082,188,8.176,0,0,0.457
0.062,-0.128,0.959,0.002,-49.736,-57.604,15.125,59.225,20.594,69.069,0.058,126,5.538,0,0,-0.422
0.066,-0.128,0.959,0.002,-49.736,-57.446,15.125,59.225,20.594,69.069,0.059,134,6.022,0,0,-0.404
0.066,-0.128,0.959,0.003,-49.78,-57.604,15.125,59.225,20.594,69.069,0.057,132,5.934,0,0,-0.492
0.062,-0.128,0.959,0.654,15.407,59.732,15.125,59.225,20.594,69.069,0.085,191,8.396,0,0,0.457
0.062,-0.128,0.959,0.003,-49.736,-57.604,15.125,59.225,20.594,69.069,0.059,135,5.934,0,0,-0.475
0.066,-0.128,0.959,0.003,-49.736,-57.446,15.125,59.225,20.594,69.069,0.059,131,5.846,0,0,-0.475
0.066,-0.132,0.959,0.676,17.648,63.609,15.125,59.225,20.594,69.069,0.082,184,8.132,0,0,0.457
0.066,-0.128,0.959,0.677,17.692,63.688,15.125,59.225,20.594,69.069,0.083,186,8.352,0,0,0.545
0.066,-0.128,0.959,0.678,17.648,63.767,15.125,59.225,20.594,69.069,0.082,186,8.132,0,0,0.51
0.066,-0.132,0.959,0.678,17.736,63.846,15.125,59.225,20.594,69.069,0.084,188,8.44,0,0,0.58
0.066,-0.128,0.963,0.002,-49.78,-57.604,15.125,59.225,20.594,69.069,0.059,135,5.363,0,0,-0.563
0.066,-0.124,0.959,0.675,17.516,63.371,15.125,59.225,20.594,69.069,0.084,190,8.527,0,0,0.492
0.058,-0.124,0.959,0.677,17.604,63.688,15.125,59.225,20.594,69.069,0.084,186,8.22,0,0,0.51
0.066,-0.124,0.963,0.676,17.648,63.688,15.125,59.225,20.594,69.069,0.083,192,8.22,0,0,0.545
0.058,-0.132,0.948,0.656,15.582,60.048,15.125,59.225,20.594,69.069,0.084,188,8.264,0,0,0.527
0.066,-0.128,0.959,0.65,14.923,58.782,15.125,59.225,20.594,69.069,0.08,185,8.088,0,0,0.44
0.062,-0.128,0.963,0.002,-49.824,-57.684,15.125,59.225,20.594,69.069,0.058,130,5.758,0,0,-0.404
0.062,-0.128,0.948,0.002,-49.824,-57.604,15.125,59.225,20.594,69.069,0.06,141,6.198,0,0,-0.475
0.066,-0.124,0.959,0.003,-49.78,-57.446,15.125,59.225,20.594,69.069,0.061,138,6.066,0,0,-0.475
0.062,-0.128,0.971,0.002,-49.78,-57.684,15.125,59.225,20.594,69.069,0.058,135,5.978,0,0,-0.387
0.066,-0.124,0.963,0.002,-49.78,-57.525,15.125,59.225,20.594,69.069,0.06,130,5.978,0,0,-0.352
0.066,-0.128,0.959,0.677,17.56,63.609,15.125,59.225,20.594,69.069,0.083,188,8.176,0,0,0.475
0.062,-0.128,0.963,0.002,-49.78,-57.525,15.125,59.225,20.594,69.069,0.059,131,6.022,0,0,-0.457
0.066,-0.128,0.959,0.676,17.56,63.767,15.125,59.225,20.625,69.125,0.084,194,8.396,0,0,0.545
0.062,-0.128,0.959,0.003,-49.692,-57.604,15.125,59.225,20.625,69.125,0.061,131,6.022,0,0,-0.44
0.062,-0.128,0.959,0.003,-49.692,-57.604,15.125,59.225,20.625,69.125,0.061,131,6.022,0,0,-0.44
0.062,-0.128,0.959,0.003,-49.692,-57.604,15.125,59.225,20.625,69.125,0.061,131,6.022,0,0,-0.44
0.062,-0.128,0.959,0.003,-49.692,-57.604,15.125,59.225,20.625,69.125,0.061,131,6.022,0,0,-0.44
0.066,-0.128,0.967,0.002,-49.736,-57.604,14.812,58.662,20.625,69.125,0.057,130,5.67,0,0,-0.492
0.066,-0.128,0.967,0.002,-49.736,-57.604,14.812,58.662,20.625,69.125,0.057,130,5.67,0,0,-0.492
0.066,-0.132,0.963,0.678,17.78,63.925,14.812,58.662,20.625,69.125,0.082,185,7.956,0,0,0.492
0.066,-0.132,0.963,0.678,17.78,63.925,14.812,58.662,20.625,69.125,0.082,185,7.956,0,0,0.492
0.062,-0.128,0.963,0.677,17.692,63.846,14.812,58.662,20.625,69.125,0.084,191,8.308,0,0,0.527
0.062,-0.128,0.963,0.677,17.692,63.846,14.812,58.662,20.625,69.125,0.084,191,8.308,0,0,0.527
0.062,-0.128,0.963,0.002,-49.78,-57.604,14.812,58.662,20.625,69.125,0.054,135,5.451,0,0,-0.633
0.066,-0.132,0.959,0.002,-49.824,-57.684,14.812,58.662,20.625,69.125,0.059,141,5.934,0,0,-0.316
0.062,-0.128,0.963,0.003,-49.736,-57.525,14.812,58.662,20.625,69.125,0.057,142,6.33,0,0,-0.352
0.062,-0.128,0.959,0.003,-49.736,-57.525,14.812,58.662,20.625,69.125,0.064,139,6.242,0,0,-0.44
0.07,-0.132,0.963,0.679,17.824,64.004,14.812,58.662,20.625,69.125,0.084,193,8.396,0,0,0.527
0.07,-0.132,0.967,0.678,17.736,63.846,14.812,58.662,20.625,69.125,0.082,190,8.132,0,0,0.545
0.066,-0.128,-0.035,0.678,17.824,64.084,14.812,58.662,20.625,69.125,0.083,187,8.308,0,0,0.51
0.066,-0.132,0.959,0.003,-49.736,-57.525,14.812,58.662,20.625,69.125,0.057,134,5.89,0,0,-0.44
0.066,-0.128,0.963,0.003,-49.736,-57.525,14.812,58.662,20.625,69.125,0.06,133,5.758,0,0,-0.563
0.066,-0.128,0.959,0.003,-49.736,-57.446,14.812,58.662,20.625,69.125,0.059,134,5.978,0,0,-0.44
0.066,-0.124,0.959,0.003,-49.78,-57.525,14.812,58.662,20.625,69.125,0.061,140,6.154,0,0,-0.352
0.07,-0.128,0.944,0.003,-49.78,-57.525,14.812,58.662,20.625,69.125,0.059,130,5.582,0,0,-0.44
0.062,-0.124,0.959,0.003,-49.736,-57.525,14.812,58.662,20.625,69.125,0.06,135,6.11,0,0,-0.44
0.062,-0.128,0.963,0.002,-49.78,-57.604,14.812,58.662,20.625,69.125,0.058,134,6.11,0,0,-0.475
0.062,-0.124,0.959,0.003,-49.692,-57.525,14.812,58.662,20.625,69.125,0.062,137,6.154,0,0,-0.404
0.062,-0.124,0.959,0.002,-49.824,-57.604,14.812,58.662,20.625,69.125,0.064,143,6.11,0,0,-0.457
0.066,-0.128,0.967,0.678,17.736,63.925,14.812,58.662,20.625,69.125,0.084,191,8.308,0,0,0.563
0.062,-0.128,0.963,0.679,17.78,64.004,14.812,58.662,20.625,69.125,0.082,185,8.176,0,0,0.51
0.062,-0.132,0.959,0.651,15.011,59.178,14.812,58.662,20.625,69.125,0.081,186,8.308,0,0,0.527
0.07,-0.128,0.967,0.003,-49.692,-57.525,14.812,58.662,20.625,69.125,0.057,130,5.538,0,0,-0.457
0.066,-0.128,0.963,0.002,-49.78,-57.604,14.812,58.662,20.625,69.125,0.06,138,6.154,0,0,-0.545
0.066,-0.124,0.963,0.001,-49.868,-57.763,14.812,58.662,20.625,69.125,0.058,134,5.978,0,0,-0.475
0.066,-0.128,0.959,0.676,17.56,63.53,14.812,58.662,20.625,69.125,0.084,192,8.571,0,0,0.563
0.07,-0.124,0.963,0.003,-49.692,-57.446,14.812,58.662,20.625,69.125,0.057,131,5.495,0,0,-0.387
0.066,-0.128,0.963,0.65,14.879,58.941,14.812,58.662,20.625,69.125,0.078,183,8.044,0,0,0.404
0.062,-0.132,0.959,0.676,17.604,63.688,14.812,58.662,20.625,69.125,0.081,187,8.132,0,0,0.545
0.066,-0.128,0.963,0.658,15.758,60.286,14.812,58.662,20.625,69.125,0.08,178,8,0,0,0.457
0.066,-0.128,0.959,0.677,17.692,63.767,14.812,58.662,20.625,69.125,0.08,182,7.912,0,0,0.545
0.066,-0.128,0.963,0.676,17.604,63.688,14.812,58.662,20.625,69.125,0.083,192,8.176,0,0,0.545
0.066,-0.128,0.963,0.003,-49.692,-57.446,14.812,58.662,20.625,69.125,0.058,139,6.286,0,0,-0.475
0.066,-0.128,0.963,0.658,15.67,60.286,14.812,58.662,20.625,69.125,0.08,182,8,0,0,0.527
0.066,-0.132,0.963,0.651,15.099,59.099,14.812,58.662,20.625,69.125,0.082,185,8.22,0,0,0.475
0.066,-0.128,0.959,0.676,17.648,63.609,14.812,58.662,20.625,69.125,0.084,189,8.352,0,0,0.475
0.066,-0.124,0.963,0.676,17.648,63.767,14.812,58.662,20.625,69.125,0.085,194,8.571,0,0,0.545
0.062,-0.128,0.959,0.677,17.604,63.767,14.812,58.662,20.625,69.125,0.084,190,8.352,0,0,0.51
0.066,-0.124,0.963,0.678,17.692,63.846,14.812,58.662,20.625,69.125,0.084,188,8.396,0,0,0.563
0.062,-0.124,0.963,0.003,-49.736,-57.446,14.812,58.662,20.625,69.125,0.061,136,6.066,0,0,-0.422
0.07,-0.132,0.963,0.657,15.802,60.365,14.812,58.662,20.625,69.125,0.087,194,8.659,0,0,0.51
0.066,-0.128,0.956,0.003,-49.736,-57.604,14.812,58.662,20.625,69.125,0.055,130,5.758,0,0,-0.475
0.066,-0.128,0.956,0.003,-49.736,-57.604,14.812,58.662,20.625,69.125,0.055,130,5.758,0,0,-0.475
0.062,-0.128,0.963,0.677,17.692,63.767,14.812,58.662,20.688,69.238,0.082,184,8.132,0,0,0.615
0.058,-0.128,0.959,0.654,15.143,59.336,14.812,58.662,20.688,69.238,0.084,192,8.264,0,0,0.51
0.062,-0.128,0.963,0.676,17.648,63.846,14.812,58.662,20.688,69.238,0.081,182,8.264,0,0,0.492
0.062,-0.128,0.967,0.676,17.56,63.767,14.812,58.662,20.688,69.238,0.084,190,8.308,0,0,0.527
0.07,-0.128,0.963,0.676,17.648,63.53,14.812,58.662,20.688,69.238,0.082,187,8.088,0,0,0.51
0.062,-0.128,0.967,0.677,17.56,63.609,14.125,57.425,20.688,69.238,0.083,190,8.44,0,0,0.51
0.066,-0.128,0.963,0.003,-49.692,-57.525,14.125,57.425,20.688,69.238,0.058,134,5.846,0,0,-0.475
0.066,-0.124,0.963,0.003,-49.692,-57.525,14.125,57.425,20.688,69.238,0.058,135,5.714,0,0,-0.492
0.066,-0.128,0.967,0.003,-49.736,-57.604,14.125,57.425,20.688,69.238,0.058,132,6.022,0,0,-0.492
0.066,-0.128,0.963,0.679,17.78,63.846,14.125,57.425,20.688,69.238,0.083,189,8.308,0,0,0.492
0.066,-0.132,0.963,0.003,-49.692,-57.525,14.125,57.425,20.688,69.238,0.058,135,5.626,0,0,-0.369
0.062,-0.128,0.959,0.654,15.319,59.336,14.125,57.425,20.688,69.238,0.079,185,8.088,0,0,0.422
0.066,-0.128,0.963,0.677,17.736,63.846,14.125,57.425,20.688,69.238,0.082,187,8.132,0,0,0.527
0.066,-0.128,0.963,0.677,17.736,63.846,14.125,57.425,20.688,69.238,0.082,187,8.132,0,0,0.527
0.062,-0.128,-0.035,0.002,-49.78,-57.446,14.125,57.425,20.688,69.238,0.058,137,6.462,0,0,-0.457
0.066,-0.128,0.967,0.679,17.78,64.004,14.125,57.425,20.688,69.238,0.082,187,8.176,0,0,0.475
0.062,-0.124,0.963,0.002,-49.78,-57.684,14.125,57.425,20.688,69.238,0.058,140,6.022,0,0,-0.404
0.066,-0.128,0.963,0.651,15.055,59.02,14.125,57.425,20.688,69.238,0.083,188,8.088,0,0,0.563
0.066,-0.132,0.959,0.002,-49.824,-57.684,14.125,57.425,20.688,69.238,0.058,133,5.714,0,0,-0.492
0.062,-0.121,0.963,0.655,15.407,59.574,14.125,57.425,20.688,69.238,0.082,189,8.264,0,0,0.51
0.066,-0.128,0.963,0.65,15.099,59.099,14.125,57.425,20.688,69.238,0.084,188,8.308,0,0,0.527
0.062,-0.128,0.952,0.652,15.099,59.178,14.125,57.425,20.688,69.238,0.08,181,7.912,0,0,0.475
0.062,-0.136,0.959,0.677,17.692,63.846,14.125,57.425,20.688,69.238,0.081,192,8.176,0,0,0.545
0.066,-0.132,0.963,0.678,17.78,64.004,14.125,57.425,20.688,69.238,0.083,186,8.22,0,0,0.545
0.062,-0.128,0.959,0.003,-49.736,-57.525,14.125,57.425,20.688,69.238,0.059,133,5.89,0,0,-0.44
0.066,-0.128,0.963,0.678,17.824,64.084,14.125,57.425,20.688,69.238,0.085,190,8.396,0,0,0.563
0.066,-0.128,0.959,0.678,17.692,64.084,14.125,57.425,20.688,69.238,0.083,187,8.22,0,0,0.563
0.066,-0.132,0.963,0.651,14.967,59.02,14.125,57.425,20.688,69.238,0.086,196,8.527,0,0,0.527
0.07,-0.128,0.963,0.655,15.275,59.495,14.125,57.425,20.688,69.238,0.082,189,8.264,0,0,0.457
0.058,-0.132,0.956,0.002,-49.824,-57.684,14.125,57.425,20.688,69.238,0.057,125,5.626,0,0,-0.475
0.066,-0.128,0.963,0.651,15.055,59.02,14.125,57.425,20.688,69.238,0.08,185,8.264,0,0,0.44
0.066,-0.124,0.959,0.002,-49.824,-57.604,14.125,57.425,20.688,69.238,0.059,136,5.934,0,0,-0.44
0.066,-0.128,0.967,0.002,-49.824,-57.604,14.125,57.425,20.688,69.238,0.06,132,5.978,0,0,-0.404
0.066,-0.132,0.967,0.676,17.648,63.767,14.125,57.425,20.688,69.238,0.085,191,8.352,0,0,0.58
0.066,-0.132,0.963,0.676,17.604,63.767,14.125,57.425,20.688,69.238,0.085,191,8.44,0,0,0.51
0.066,-0.124,0.963,0.003,-49.736,-57.525,14.125,57.425,20.688,69.238,0.056,130,5.67,0,0,-0.475
0.066,-0.128,0.963,0.676,17.692,63.688,14.125,57.425,20.688,69.238,0.083,194,8.352,0,0,0.545
0.062,-0.128,0.963,0.676,17.604,63.688,14.125,57.425,20.688,69.238,0.082,185,8.088,0,0,0.475
0.066,-0.128,0.963,0.676,17.648,63.846,14.125,57.425,20.688,69.238,0.085,192,8.44,0,0,0.563
0.066,-0.128,0.959,0.654,15.363,59.732,14.125,57.425,20.688,69.238,0.083,191,8.264,0,0,0.492
0.066,-0.128,0.967,0.676,17.648,63.609,14.125,57.425,20.688,69.238,0.082,186,8.044,0,0,0.58
0.062,-0.128,0.959,0.002,-49.824,-57.763,14.125,57.425,20.688,69.238,0.056,135,6.022,0,0,-0.527
0.066,-0.128,0.963,0.676,17.604,63.609,14.125,57.425,20.688,69.238,0.083,187,7.956,0,0,0.492
0.066,-0.128,0.959,0.676,17.648,63.767,14.125,57.425,20.688,69.238,0.083,191,8.308,0,0,0.598
0.062,-0.128,0.963,0.651,15.011,58.941,14.125,57.425,20.688,69.238,0.083,188,8.22,0,0,0.51
0.066,-0.128,0.959,0.676,17.648,63.767,14.125,57.425,20.688,69.238,0.082,192,8.22,0,0,0.545
0.066,-0.128,0.963,0.677,17.604,63.767,14.125,57.425,20.688,69.238,0.081,191,8.176,0,0,0.51
0.066,-0.124,0.967,0.003,-49.78,-57.525,14.125,57.425,20.688,69.238,0.061,135,5.89,0,0,-0.492
0.07,-0.132,0.963,0.677,17.648,63.609,14.125,57.425,20.688,69.238,0.082,192,8.308,0,0,0.545
0.062,-0.128,0.963,0.003,-49.736,-57.604,14.125,57.425,20.688,69.238,0.06,142,6.154,0,0,-0.387
0.066,-0.128,0.963,0.002,-49.78,-57.604,14.125,57.425,20.688,69.238,0.06,138,6.11,0,0,-0.404
0.066,-0.128,0.963,0.003,-49.736,-57.604,14.125,57.425,20.719,69.294,0.059,132,5.978,0,0,-0.369
0.066,-0.128,0.963,0.649,14.835,58.941,14.125,57.425,20.719,69.294,0.085,194,8.527,0,0,0.527
0.066,-0.128,0.963,0.002,-49.824,-57.604,14.125,57.425,20.719,69.294,0.061,132,6.022,0,0,-0.475
0.062,-0.124,0.963,0.677,17.692,63.846,14.125,57.425,20.719,69.294,0.087,191,8.484,0,0,0.527
0.066,-0.132,0.956,0.651,14.879,58.862,12.875,55.175,20.719,69.294,0.08,184,8.176,0,0,0.475
0.066,-0.124,0.963,0.651,15.055,59.02,12.875,55.175,20.719,69.294,0.08,181,8,0,0,0.492
0.066,-0.124,0.963,0.651,15.055,59.02,12.875,55.175,20.719,69.294,0.08,181,8,0,0,0.492
0.07,-0.128,0.963,0.658,15.846,60.523,12.875,55.175,20.719,69.294,0.082,186,8.088,0,0,0.545
0.066,-0.128,0.963,0.003,-49.736,-57.604,12.875,55.175,20.719,69.294,0.057,131,5.714,0,0,-0.422
0.066,-0.128,0.963,0.676,17.648,63.846,12.875,55.175,20.719,69.294,0.084,195,8.44,0,0,0.563
0.066,-0.132,0.963,0.679,17.78,63.925,12.875,55.175,20.719,69.294,0.08,186,8.132,0,0,0.545
0.062,-0.121,0.963,0.677,17.736,63.767,12.875,55.175,20.719,69.294,0.084,191,8.308,0,0,0.58
0.066,-0.132,0.967,0.677,17.736,64.084,12.875,55.175,20.719,69.294,0.083,187,8.352,0,0,0.51
0.07,-0.128,0.967,0.002,-49.824,-57.604,12.875,55.175,20.719,69.294,0.058,139,6.154,0,0,-0.44
0.07,-0.128,0.959,0.003,-49.736,-57.604,12.875,55.175,20.719,69.294,0.058,127,5.758,0,0,-0.44
0.062,-0.124,0.963,0.678,17.824,63.846,12.875,55.175,20.719,69.294,0.081,186,8.132,0,0,0.545
0.062,-0.124,0.967,0.679,17.868,64.163,12.875,55.175,20.719,69.294,0.084,189,8.308,0,0,0.492
0.066,-0.132,0.963,0.678,17.736,63.925,12.875,55.175,20.719,69.294,0.083,192,8.22,0,0,0.527
0.066,-0.128,0.967,0.662,15.538,59.653,12.875,55.175,20.719,69.294,0.079,184,7.956,0,0,0.457
0.066,-0.128,0.963,0.003,-49.736,-57.525,12.875,55.175,20.719,69.294,0.061,136,5.978,0,0,-0.492
0.066,-0.132,0.959,0.679,17.824,64.004,12.875,55.175,20.719,69.294,0.084,193,8.308,0,0,0.492
0.066,-0.128,0.963,0.002,-49.78,-57.604,12.875,55.175,20.719,69.294,0.061,147,6.242,0,0,-0.387
0.066,-0.124,-0.035,0.003,-49.692,-57.525,12.875,55.175,20.719,69.294,0.059,137,5.89,0,0,-0.457
0.066,-0.128,0.963,0.003,-49.736,-57.525,12.875,55.175,20.719,69.294,0.058,136,5.714,0,0,-0.457
0.062,-0.124,0.959,0.678,17.736,63.609,12.875,55.175,20.719,69.294,0.083,190,8.264,0,0,0.492
0.066,-0.128,0.963,0.002,-49.824,-57.684,12.875,55.175,20.719,69.294,0.061,139,6.066,0,0,-0.457
0.066,-0.124,0.971,0.68,17.868,64.004,12.875,55.175,20.719,69.294,0.085,191,8.527,0,0,0.492
0.066,-0.128,0.967,0.679,17.868,64.004,12.875,55.175,20.719,69.294,0.08,184,8.044,0,0,0.527
0.066,-0.128,0.963,0.655,15.451,59.89,12.875,55.175,20.719,69.294,0.081,181,8.308,0,0,0.475
0.066,-0.128,0.963,0.655,15.451,59.89,12.875,55.175,20.719,69.294,0.081,181,8.308,0,0,0.475
0.058,-0.128,0.959,0.679,17.736,64.084,12.875,55.175,20.719,69.294,0.082,185,8.044,0,0,0.563
0.062,-0.124,0.967,0.003,-49.692,-57.446,12.875,55.175,20.719,69.294,0.058,133,5.758,0,0,-0.475
0.062,-0.121,0.952,0.654,15.319,59.574,12.875,55.175,20.719,69.294,0.079,186,8,0,0,0.51
0.066,-0.128,0.959,0.65,14.923,58.624,12.875,55.175,20.719,69.294,0.084,188,8.352,0,0,0.492
0.062,-0.128,0.963,0.652,15.099,59.099,12.875,55.175,20.719,69.294,0.082,184,8.088,0,0,0.51
0.066,-0.128,0.959,0.658,15.758,60.365,12.875,55.175,20.719,69.294,0.083,189,8.22,0,0,0.51
0.066,-0.128,0.963,0.653,15.275,59.574,12.875,55.175,20.719,69.294,0.082,186,8,0,0,0.51
0.066,-0.128,0.963,0.003,-49.78,-57.604,12.875,55.175,20.719,69.294,0.058,131,5.89,0,0,-0.44
0.066,-0.128,0.971,0.677,17.648,63.846,12.875,55.175,20.719,69.294,0.079,183,8,0,0,0.475
0.066,-0.128,0.971,0.677,17.648,63.846,12.875,55.175,20.719,69.294,0.079,183,8,0,0,0.475
0.062,-0.128,0.959,0.677,17.56,63.609,12.875,55.175,20.719,69.294,0.079,183,8.044,0,0,0.475
0.066,-0.132,0.963,0.677,17.692,63.846,12.875,55.175,20.719,69.294,0.08,183,7.912,0,0,0.527
0.062,-0.124,0.959,0.003,-49.736,-57.525,12.875,55.175,20.719,69.294,0.065,153,6.549,0,0,-0.475
0.062,-0.132,0.959,0.002,-49.78,-57.684,12.875,55.175,20.719,69.294,0.062,136,6.242,0,0,-0.281
0.062,-0.128,-0.031,0.003,-49.736,-57.604,12.875,55.175,20.719,69.294,0.059,133,5.451,0,0,-0.457
0.066,-0.132,0.967,0.003,-49.736,-57.604,12.875,55.175,20.719,69.294,0.06,139,5.978,0,0,-0.334
0.066,-0.128,0.963,0.002,-49.868,-57.684,12.875,55.175,20.719,69.294,0.06,134,5.978,0,0,-0.633
0.066,-0.128,0.963,0.003,-49.736,-57.604,12.875,55.175,20.719,69.294,0.06,133,5.934,0,0,-0.422
0.066,-0.128,0.963,0.002,-49.824,-57.604,12.875,55.175,20.719,69.294,0.062,140,6.242,0,0,-0.492
0.07,-0.128,0.963,0.003,-49.736,-57.525,12.875,55.175,20.719,69.294,0.063,138,6.418,0,0,-0.457
0.066,-0.128,0.963,0.003,-49.736,-57.525,12.875,55.175,20.781,69.406,0.057,133,5.802,0,0,-0.457
0.066,-0.128,0.959,0.002,-49.78,-57.525,12.875,55.175,20.781,69.406,0.058,136,5.978,0,0,-0.492
0.062,-0.124,0.971,0.003,-49.736,-57.604,12.875,55.175,20.781,69.406,0.058,134,5.89,0,0,-0.457
0.062,-0.128,0.963,0.676,17.648,63.767,12.875,55.175,20.781,69.406,0.082,190,8.308,0,0,0.527
0.062,-0.128,0.963,0.002,-49.78,-57.604,12.875,55.175,20.781,69.406,0.056,133,5.67,0,0,-0.51
0.066,-0.128,0.963,0.677,17.648,63.846,12.625,54.725,20.781,69.406,0.082,189,8.308,0,0,0.527
0.062,-0.132,0.959,0.677,17.648,63.688,12.625,54.725,20.781,69.406,0.082,185,8.176,0,0,0.51
0.07,-0.128,0.963,0.658,15.758,60.127,12.625,54.725,20.781,69.406,0.079,178,8,0,0,0.545
0.066,-0.128,0.959,0.678,17.824,64.004,12.625,54.725,20.781,69.406,0.084,195,8.44,0,0,0.422
0.062,-0.132,0.959,0.651,15.099,59.178,12.625,54.725,20.781,69.406,0.083,186,8.22,0,0,0.563
0.062,-0.128,0.963,0.002,-49.824,-57.684,12.625,54.725,20.781,69.406,0.056,126,5.451,0,0,-0.51
0.066,-0.132,0.963,0.678,17.78,64.084,12.625,54.725,20.781,69.406,0.082,189,8.352,0,0,0.527
0.066,-0.128,0.959,0.678,17.692,63.925,12.625,54.725,20.781,69.406,0.084,191,8.352,0,0,0.475
0.07,-0.132,0.963,0.678,17.824,64.163,12.625,54.725,20.781,69.406,0.081,187,8.264,0,0,0.615
0.066,-0.124,0.956,0.679,17.868,64.163,12.625,54.725,20.781,69.406,0.081,183,7.956,0,0,0.545
0.066,-0.128,0.959,0.678,17.736,63.925,12.625,54.725,20.781,69.406,0.078,184,7.956,0,0,0.545
0.066,-0.132,0.963,0.003,-49.736,-57.525,12.625,54.725,20.781,69.406,0.056,127,5.714,0,0,-0.545
0.062,-0.128,0.963,0.002,-49.78,-57.604,12.625,54.725,20.781,69.406,0.061,136,5.802,0,0,-0.422
0.058,-0.128,0.963,0.002,-49.78,-57.525,12.625,54.725,20.781,69.406,0.059,136,5.934,0,0,-0.545
0.066,-0.128,0.963,0.002,-49.824,-57.684,12.625,54.725,20.781,69.406,0.059,131,5.758,0,0,-0.492
0.066,-0.124,0.963,0.002,-49.78,-57.525,12.625,54.725,20.781,69.406,0.057,129,5.802,0,0,-0.51
0.066,-0.128,0.963,0.002,-49.824,-57.604,12.625,54.725,20.781,69.406,0.059,134,5.978,0,0,-0.404
0.066,-0.124,-0.035,0.679,17.824,64.084,12.625,54.725,20.781,69.406,0.082,190,8.308,0,0,0.545
0.07,-0.128,0.959,0.002,-49.78,-57.604,12.625,54.725,20.781,69.406,0.057,134,5.67,0,0,-0.475
0.066,-0.124,0.952,0.002,-49.78,-57.446,12.625,54.725,20.781,69.406,0.06,133,5.89,0,0,-0.44
0.062,-0.128,0.963,0.002,-49.824,-57.684,12.625,54.725,20.781,69.406,0.056,132,5.846,0,0,-0.44
0.066,-0.128,0.963,0.677,17.736,63.925,12.625,54.725,20.781,69.406,0.086,196,8.615,0,0,0.527
0.066,-0.132,0.967,0.679,17.824,64.084,12.625,54.725,20.781,69.406,0.082,186,8,0,0,0.51
0.062,-0.128,0.967,0.68,17.868,64.084,12.625,54.725,20.781,69.406,0.081,184,8.264,0,0,0.492
0.062,-0.132,0.959,0.678,17.692,63.925,12.625,54.725,20.781,69.406,0.081,186,8.22,0,0,0.492
0.066,-0.128,0.963,0.652,15.187,59.178,12.625,54.725,20.781,69.406,0.08,185,8,0,0,0.492
0.066,-0.128,0.959,0.679,17.824,63.925,12.625,54.725,20.781,69.406,0.082,187,8.264,0,0,0.492
0.066,-0.132,0.963,0.678,17.78,63.925,12.625,54.725,20.781,69.406,0.083,188,8.22,0,0,0.527
0.066,-0.124,0.963,0.003,-49.736,-57.525,12.625,54.725,20.781,69.406,0.058,135,5.758,0,0,-0.527
0.066,-0.124,0.959,0.677,17.692,63.846,12.625,54.725,20.781,69.406,0.084,196,8.308,0,0,0.563
0.066,-0.128,0.963,0.001,-49.868,-57.763,12.625,54.725,20.781,69.406,0.058,137,5.714,0,0,-0.475
0.066,-0.128,0.963,0.003,-49.78,-57.525,12.625,54.725,20.781,69.406,0.059,129,5.758,0,0,-0.404
0.058,-0.128,0.959,0.003,-49.78,-57.525,12.625,54.725,20.781,69.406,0.059,134,5.934,0,0,-0.404
0.066,-0.128,0.963,0.678,17.736,63.925,12.625,54.725,20.781,69.406,0.084,188,8.396,0,0,0.545
0.066,-0.124,0.963,0.002,-49.824,-57.763,12.625,54.725,20.781,69.406,0.058,128,5.89,0,0,-0.404
0.062,-0.128,0.959,0.003,-49.692,-57.525,12.625,54.725,20.781,69.406,0.061,137,6.242,0,0,-0.422
0.066,-0.132,0.963,0.002,-49.78,-57.604,12.625,54.725,20.781,69.406,0.059,136,6.022,0,0,-0.369
0.066,-0.132,0.959,0.002,-49.78,-57.604,12.625,54.725,20.781,69.406,0.059,135,6.022,0,0,-0.404
0.066,-0.128,0.959,0.002,-49.824,-57.604,12.625,54.725,20.781,69.406,0.06,135,5.978,0,0,-0.352
0.066,-0.128,0.959,0.66,15.407,59.495,12.625,54.725,20.781,69.406,0.085,194,8.571,0,0,0.51
0.062,-0.124,0.959,0.003,-49.736,-57.446,12.625,54.725,20.781,69.406,0.058,134,5.934,0,0,-0.492
0.062,-0.132,0.963,0.677,17.692,63.767,12.625,54.725,20.781,69.406,0.082,188,8,0,0,0.545
0.066,-0.128,0.963,0.677,17.692,63.925,12.625,54.725,20.781,69.406,0.08,183,7.956,0,0,0.545
0.062,-0.128,0.959,0.677,17.692,63.925,12.625,54.725,20.781,69.406,0.082,182,8.176,0,0,0.492
0.066,-0.124,0.948,0.678,17.736,63.925,12.625,54.725,20.781,69.406,0.078,181,7.956,0,0,0.527
0.066,-0.128,0.959,0.677,17.692,63.925,12.625,54.725,20.812,69.463,0.08,187,8.352,0,0,0.51
0.062,-0.128,0.956,0.678,17.736,63.846,12.625,54.725,20.812,69.463,0.081,183,8.044,0,0,0.492
0.066,-0.128,0.959,0.677,17.736,63.925,12.625,54.725,20.812,69.463,0.08,186,8.044,0,0,0.545
0.07,-0.128,0.959,0.658,15.714,60.286,12.625,54.725,20.812,69.463,0.082,188,8.264,0,0,0.563
0.062,-0.132,0.963,0.677,17.648,63.688,12.625,54.725,20.812,69.463,0.08,188,8.132,0,0,0.527
0.062,-0.128,0.963,0.678,17.692,63.767,12.625,54.725,20.812,69.463,0.08,184,8.088,0,0,0.475
0.066,-0.132,0.959,0.003,-49.648,-57.446,13.031,55.456,20.812,69.463,0.06,128,5.934,0,0,-0.457
0.066,-0.124,0.963,0.676,17.692,63.846,13.031,55.456,20.812,69.463,0.084,191,8.44,0,0,0.563
0.066,-0.124,0.967,0.678,17.736,63.846,13.031,55.456,20.812,69.463,0.083,187,8.484,0,0,0.527
0.066,-0.128,0.959,0.678,17.78,64.004,13.031,55.456,20.812,69.463,0.084,193,8.264,0,0,0.51
0.066,-0.121,0.956,0.678,17.78,64.084,13.031,55.456,20.812,69.463,0.081,183,7.956,0,0,0.58
0.066,-0.128,0.963,0.679,17.78,64.004,13.031,55.456,20.812,69.463,0.08,185,8.132,0,0,0.492
0.066,-0.132,0.963,0.678,17.736,63.925,13.031,55.456,20.812,69.463,0.082,191,8.44,0,0,0.527
0.066,-0.128,0.956,0.678,17.736,64.004,13.031,55.456,20.812,69.463,0.082,193,8.22,0,0,0.527
0.07,-0.128,0.956,0.002,-49.824,-57.684,13.031,55.456,20.812,69.463,0.059,131,6.022,0,0,-0.457
0.062,-0.132,0.963,0.002,-49.78,-57.525,13.031,55.456,20.812,69.463,0.059,136,5.978,0,0,-0.457
0.066,-0.124,0.956,0.003,-49.736,-57.604,13.031,55.456,20.812,69.463,0.058,129,5.846,0,0,-0.404
0.07,-0.128,0.959,0.678,17.78,64.004,13.031,55.456,20.812,69.463,0.083,189,8.308,0,0,0.51
0.062,-0.124,0.967,0.004,-49.648,-57.367,13.031,55.456,20.812,69.463,0.058,133,5.538,0,0,-0.492
0.062,-0.128,0.948,0.651,15.099,59.257,13.031,55.456,20.812,69.463,0.081,187,8.176,0,0,0.44
0.062,-0.124,0.963,0.679,17.824,64.004,13.031,55.456,20.812,69.463,0.08,183,8,0,0,0.615
0.062,-0.128,0.959,0.678,17.824,64.004,13.031,55.456,20.812,69.463,0.081,186,8.264,0,0,0.563
0.066,-0.128,0.959,0.652,15.275,59.178,13.031,55.456,20.812,69.463,0.081,180,8,0,0,0.475
0.062,-0.132,0.959,0.68,17.912,64.084,13.031,55.456,20.812,69.463,0.083,186,8.176,0,0,0.492
0.066,-0.124,0.959,0.004,-49.648,-57.446,13.031,55.456,20.812,69.463,0.06,135,5.934,0,0,-0.387
0.066,-0.128,0.959,0.003,-49.692,-57.446,13.031,55.456,20.812,69.463,0.059,128,5.978,0,0,-0.457
0.066,-0.128,0.963,0.004,-49.648,-57.446,13.031,55.456,20.812,69.463,0.058,129,5.89,0,0,-0.44
0.07,-0.128,0.959,0.003,-49.692,-57.525,13.031,55.456,20.812,69.463,0.059,131,5.802,0,0,-0.492
0.066,-0.128,0.959,0.654,15.363,59.89,13.031,55.456,20.812,69.463,0.081,178,8,0,0,0.492
0.062,-0.128,0.959,0.003,-49.736,-57.604,13.031,55.456,20.812,69.463,0.057,132,5.495,0,0,-0.457
0.066,-0.128,0.963,0.002,-49.824,-57.684,13.031,55.456,20.812,69.463,0.058,133,5.758,0,0,-0.457
0.066,-0.128,0.967,0.002,-49.78,-57.604,13.031,55.456,20.812,69.463,0.059,135,6.066,0,0,-0.457
0.062,-0.128,0.959,0.002,-49.824,-57.604,13.031,55.456,20.812,69.463,0.057,133,5.89,0,0,-0.404
0.066,-0.124,0.959,0.003,-49.692,-57.604,13.031,55.456,20.812,69.463,0.058,129,5.89,0,0,-0.475
0.066,-0.124,0.959,0.655,15.451,59.732,13.031,55.456,20.812,69.463,0.084,190,8.44,0,0,0.492
0.066,-0.128,0.963,0.678,17.78,63.925,13.031,55.456,20.812,69.463,0.081,189,8.264,0,0,0.527
0.066,-0.128,0.959,0.677,17.692,64.004,13.031,55.456,20.812,69.463,0.085,194,8.527,0,0,0.563
0.062,-0.128,0.959,0.676,17.648,63.846,13.031,55.456,20.812,69.463,0.083,191,8.44,0,0,0.545
0.062,-0.128,0.959,0.658,15.802,60.602,13.031,55.456,20.812,69.463,0.082,182,8.132,0,0,0.51
0.062,-0.128,0.959,0.677,17.648,63.925,13.031,55.456,20.812,69.463,0.084,191,8.352,0,0,0.527
0.055,-0.121,0.959,0.651,15.055,59.099,13.031,55.456,20.812,69.463,0.079,174,7.956,0,0,0.51
0.062,-0.128,0.963,0.003,-49.736,-57.525,13.031,55.456,20.812,69.463,0.058,131,5.67,0,0,-0.492
0.062,-0.128,0.959,0.658,15.758,60.365,13.031,55.456,20.812,69.463,0.082,183,8.132,0,0,0.475
0.066,-0.128,0.944,0.003,-49.736,-57.525,13.031,55.456,20.812,69.463,0.058,130,5.89,0,0,-0.457
0.062,-0.124,0.959,0.003,-49.736,-57.604,13.031,55.456,20.812,69.463,0.059,135,5.934,0,0,-0.404
0.062,-0.128,0.967,0.002,-49.78,-57.604,13.031,55.456,20.812,69.463,0.058,137,5.89,0,0,-0.422
0.062,-0.128,0.963,0.677,17.692,63.688,13.031,55.456,20.812,69.463,0.083,188,8.132,0,0,0.51
0.066,-0.128,0.959,0.003,-49.736,-57.604,13.031,55.456,20.812,69.463,0.058,132,5.626,0,0,-0.422
0.062,-0.132,0.956,0.654,15.407,59.653,13.031,55.456,20.812,69.463,0.082,184,8.088,0,0,0.51
0.07,-0.128,0.963,0.677,17.736,63.846,13.031,55.456,20.812,69.463,0.082,183,8.132,0,0,0.545
0.062,-0.132,0.963,0.677,17.692,63.846,13.031,55.456,20.812,69.463,0.081,188,8.264,0,0,0.475
0.066,-0.132,-0.039,0.676,17.648,63.767,13.031,55.456,20.812,69.463,0.082,186,8.132,0,0,0.492
0.066,-0.128,0.959,0.002,-49.824,-57.604,13.031,55.456,20.812,69.463,0.057,130,5.67,0,0,-0.457
0.062,-0.132,0.963,0.001,-49.868,-57.684,13.031,55.456,20.812,69.463,0.06,137,6.022,0,0,-0.457
0.066,-0.124,0.963,0.651,15.099,59.02,13.031,55.456,20.812,69.463,0.084,187,8.308,0,0,0.527
0.07,-0.124,0.956,0.002,-49.78,-57.604,13.031,55.456,20.812,69.463,0.058,131,5.758,0,0,-0.527
0.066,-0.128,0.963,0.002,-49.78,-57.684,13.031,55.456,20.812,69.463,0.057,132,5.934,0,0,-0.475
0.07,-0.128,0.959,0.002,-49.78,-57.525,13.219,55.794,20.812,69.463,0.059,135,5.89,0,0,-0.475
0.066,-0.132,0.963,0.678,17.692,64.004,13.219,55.794,20.812,69.463,0.084,186,8.308,0,0,0.545
0.062,-0.124,0.963,0.679,17.824,64.242,13.219,55.794,20.812,69.463,0.081,184,8.044,0,0,0.457
0.062,-0.128,0.963,0.679,17.736,64.004,13.219,55.794,20.812,69.463,0.081,186,8.352,0,0,0.492
0.07,-0.128,0.959,0.654,15.319,59.336,13.219,55.794,20.812,69.463,0.082,185,8,0,0,0.51
0.066,-0.132,0.963,0.679,17.736,63.925,13.219,55.794,20.812,69.463,0.081,189,8.132,0,0,0.51
0.066,-0.128,0.956,0.659,15.846,60.523,13.219,55.794,20.812,69.463,0.08,180,7.912,0,0,0.598
0.066,-0.124,0.963,0.003,-49.736,-57.446,13.219,55.794,20.812,69.463,0.058,130,5.758,0,0,-0.492
0.058,-0.124,0.956,0.003,-49.78,-57.604,13.219,55.794,20.812,69.463,0.058,135,5.714,0,0,-0.475
0.082,-0.124,0.975,0.678,17.868,64.084,13.219,55.794,20.812,69.463,0.083,185,8.264,0,0,0.527
0.062,-0.124,0.959,0.68,17.868,64.163,13.219,55.794,20.812,69.463,0.08,182,7.912,0,0,0.527
0.058,-0.128,0.944,0.652,15.187,59.336,13.219,55.794,20.812,69.463,0.08,183,7.912,0,0,0.527
0.07,-0.128,0.967,0.679,17.824,64.004,13.219,55.794,20.812,69.463,0.082,186,8.088,0,0,0.545
0.058,-0.128,0.963,0.002,-49.824,-57.604,13.219,55.794,20.812,69.463,0.058,133,5.846,0,0,-0.492
0.066,-0.132,0.952,0.004,-49.692,-57.446,13.219,55.794,20.812,69.463,0.059,130,5.802,0,0,-0.51
0.066,-0.128,0.959,0.003,-49.736,-57.525,13.219,55.794,20.812,69.463,0.06,137,5.802,0,0,-0.387
0.066,-0.128,0.959,0.003,-49.692,-57.446,13.219,55.794,20.812,69.463,0.062,137,6.154,0,0,-0.422
0.055,-0.128,0.963,0.003,-49.736,-57.525,13.219,55.794,20.812,69.463,0.057,128,5.714,0,0,-0.44
0.062,-0.124,0.959,0.651,15.099,59.02,13.219,55.794,20.812,69.463,0.08,188,8.22,0,0,0.492
0.062,-0.132,0.956,0.002,-49.78,-57.604,13.219,55.794,20.812,69.463,0.06,130,5.495,0,0,-0.369
0.066,-0.124,0.959,0.655,15.495,59.89,13.219,55.794,20.812,69.463,0.083,190,8.264,0,0,0.51
0.066,-0.124,0.963,0.002,-49.824,-57.604,13.219,55.794,20.812,69.463,0.063,144,6.286,0,0,-0.334
0.066,-0.124,0.963,0.003,-49.736,-57.525,13.219,55.794,20.812,69.463,0.063,145,6.549,0,0,-0.615
0.066,-0.124,0.963,0.002,-49.78,-57.684,13.219,55.794,20.812,69.463,0.058,142,6.11,0,0,-0.475
0.066,-0.132,0.959,0.677,17.692,63.767,13.219,55.794,20.812,69.463,0.085,192,8.484,0,0,0.527
0.062,-0.128,0.959,0.651,15.099,59.099,13.219,55.794,20.812,69.463,0.081,185,8.352,0,0,0.492
0.062,-0.128,0.959,0.651,15.099,59.099,13.219,55.794,20.812,69.463,0.081,185,8.352,0,0,0.492
0.062,-0.128,0.944,0.678,17.692,63.925,13.219,55.794,20.812,69.463,0.082,189,8.22,0,0,0.527
0.062,-0.128,0.944,0.678,17.692,63.925,13.219,55.794,20.812,69.463,0.082,189,8.22,0,0,0.527
0.062,-0.128,0.963,0.676,17.648,63.609,13.219,55.794,20.812,69.463,0.082,185,8.264,0,0,0.51
0.066,-0.128,0.959,0.677,17.648,63.767,13.219,55.794,20.812,69.463,0.084,193,8.352,0,0,0.527
0.07,-0.128,0.963,0.001,-49.868,-57.763,13.219,55.794,20.812,69.463,0.062,140,6.022,0,0,-0.369
0.07,-0.128,0.963,0.001,-49.868,-57.763,13.219,55.794,20.812,69.463,0.062,140,6.022,0,0,-0.369
0.07,-0.124,0.952,0.651,15.011,59.178,13.219,55.794,20.812,69.463,0.086,191,8.527,0,0,0.51
0.066,-0.124,0.963,0.651,15.055,58.941,13.219,55.794,20.812,69.463,0.079,187,8.132,0,0,0.492
0.062,-0.124,0.959,0.677,17.692,63.767,13.219,55.794,20.812,69.463,0.083,193,8.352,0,0,0.492
0.062,-0.128,0.959,0.651,14.967,59.099,13.219,55.794,20.812,69.463,0.083,188,8.22,0,0,0.527
0.062,-0.128,0.959,0.002,-49.78,-57.604,13.219,55.794,20.812,69.463,0.06,131,5.846,0,0,-0.492
0.066,-0.121,0.959,0.002,-49.824,-57.684,13.219,55.794,20.812,69.463,0.061,137,6.198,0,0,-0.457
0.066,-0.121,0.959,0.002,-49.824,-57.684,13.219,55.794,20.812,69.463,0.061,137,6.198,0,0,-0.457
0.066,-0.121,0.963,0.002,-49.824,-57.763,13.219,55.794,20.812,69.463,0.062,133,6.11,0,0,-0.404
0.062,-0.128,0.952,0.002,-49.78,-57.604,13.219,55.794,20.812,69.463,0.062,142,6.242,0,0,-0.387
0.066,-0.124,0.963,0.001,-49.78,-57.604,13.219,55.794,20.812,69.463,0.061,131,5.89,0,0,-0.598
0.062,-0.128,0.959,0.678,17.824,63.925,13.219,55.794,20.812,69.463,0.084,188,8.088,0,0,0.545
0.066,-0.128,0.963,0.678,17.692,63.846,13.219,55.794,20.812,69.463,0.087,196,8.571,0,0,0.527
0.066,-0.128,0.963,0.678,17.692,63.846,13.219,55.794,20.812,69.463,0.087,196,8.571,0,0,0.527
0.062,-0.124,0.959,0.655,15.407,59.574,13.219,55.794,20.844,69.519,0.081,184,8.088,0,0,0.58
0.066,-0.124,0.959,0.651,15.011,58.941,13.219,55.794,20.844,69.519,0.08,185,8.132,0,0,0.475
0.062,-0.128,0.952,0.003,-49.736,-57.446,13.219,55.794,20.844,69.519,0.059,129,5.67,0,0,-0.475
0.07,-0.132,0.959,0.678,17.78,63.846,13.219,55.794,20.844,69.519,0.084,190,8.22,0,0,0.475
0.066,-0.132,0.963,0.677,17.78,64.084,13.344,56.019,20.844,69.519,0.084,198,8.615,0,0,0.563
0.062,-0.132,0.956,0.651,15.099,59.178,13.344,56.019,20.844,69.519,0.084,189,8.396,0,0,0.51
0.055,-0.132,0.959,0.678,17.78,63.925,13.344,56.019,20.844,69.519,0.085,190,8.396,0,0,0.492
0.062,-0.128,0.959,0.677,17.736,63.767,13.344,56.019,20.844,69.519,0.083,192,8.22,0,0,0.492
0.062,-0.128,0.956,0.003,-49.736,-57.604,13.344,56.019,20.844,69.519,0.062,147,6.11,0,0,-0.404
0.07,-0.124,0.963,0.002,-49.736,-57.604,13.344,56.019,20.844,69.519,0.065,149,6.593,0,0,-0.404
0.066,-0.124,0.952,0.003,-49.736,-57.525,13.344,56.019,20.844,69.519,0.059,137,6.066,0,0,-0.352
0.07,-0.124,0.963,0.003,-49.736,-57.525,13.344,56.019,20.844,69.519,0.058,131,5.758,0,0,-0.422
0.062,-0.124,0.963,0.003,-49.736,-57.525,13.344,56.019,20.844,69.519,0.063,146,5.978,0,0,-0.51
0.062,-0.128,0.959,0.659,15.758,60.444,13.344,56.019,20.844,69.519,0.082,186,8.352,0,0,0.563
0.062,-0.128,0.963,0.678,17.78,64.004,13.344,56.019,20.844,69.519,0.082,193,8.44,0,0,0.51
0.07,-0.128,0.959,0.003,-49.736,-57.525,13.344,56.019,20.844,69.519,0.058,135,5.934,0,0,-0.51
0.066,-0.124,0.959,0.003,-49.78,-57.604,13.344,56.019,20.844,69.519,0.058,133,5.978,0,0,-0.44
0.066,-0.124,0.963,0.002,-49.824,-57.763,13.344,56.019,20.844,69.519,0.061,141,6.33,0,0,-0.475
0.066,-0.128,0.959,0.678,17.78,63.846,13.344,56.019,20.844,69.519,0.086,193,8.659,0,0,0.563
0.066,-0.128,0.959,0.677,17.692,63.688,13.344,56.019,20.844,69.519,0.083,194,8.22,0,0,0.492
